subject_ID,age_in_years,age_in_months,gender,gender_coded,age_group,age_group_coded,info_choice,condition,catch_trials,fishing_choiceL,fishing_choiceR,RT_catch,RT_info_choice,RT_fishingL,RT_fishingR,items_countL,items_countR,agency_probL,agency_probR,EV_L,EV_R,EV_flashL,EV_flashR,SD_L,SD_R,uncertainty_level_L,uncertainty_level_R,delta_EV,delta_SD,delta_uncertainty_level,delta_agency,items_count_flashL,items_count_flashR,EV_at_fishingL,EV_at_fishingR,wob,avg_wob_RT,percent_comprehension,q1,q2,q3,q4,q5,q6,q7,q8,q9,q10,q11,q12,q13,catch_trials_score,trial_number,prop_correct_fishing,fishing_rewardL,fishing_rewardR
3626472,5,61,Male,1,5-Apr,0,1,trial_1,,,0,,1843.39,,4537.295,"{""FishSmall"":0,""FishBig"":1,""CanSmall"":0,""CanBig"":1,""Seaweed"":4}","{""FishSmall"":0,""FishBig"":0,""CanSmall"":1,""CanBig"":3,""Seaweed"":2}",0,50,0,-11.66666667,16.66666667,-3.333333333,11.54700538,8.975274679,4,2,-11.66666667,-2.571730705,-2,50,"{""FishSmall"":1,""FishBig"":2,""CanSmall"":0,""CanBig"":0,""Seaweed"":0}","{""FishSmall"":1,""FishBig"":0,""CanSmall"":2,""CanBig"":0,""Seaweed"":0}",0,-3.333333333,0.9,1713.9435,0.884615385,2,2,2,2,2,1,0,2,2,2,2,2,2,100,1,0.636363636,0,-10
3626472,5,61,Male,1,5-Apr,0,0,trial_2,,,,,3144.02,2935.17,,"{""FishSmall"":3,""FishBig"":0,""CanSmall"":2,""CanBig"":0,""Seaweed"":1}","{""FishSmall"":2,""FishBig"":3,""CanSmall"":0,""CanBig"":0,""Seaweed"":1}",0,50,1.666666667,13.33333333,-3.333333333,16.66666667,8.975274679,7.453559925,1,1,11.66666667,-1.521714754,0,50,"{""FishSmall"":1,""FishBig"":0,""CanSmall"":2,""CanBig"":0,""Seaweed"":0}","{""FishSmall"":1,""FishBig"":2,""CanSmall"":0,""CanBig"":0,""Seaweed"":0}",-3.333333333,13.33333333,0.9,1713.9435,0.884615385,2,2,2,2,2,1,0,2,2,2,2,2,2,100,2,0.636363636,0,20
3626472,5,61,Male,1,5-Apr,0,1,trial_3,,0,1,,3389.505,4167.92,1547.645,"{""FishSmall"":1,""FishBig"":0,""CanSmall"":3,""CanBig"":0,""Seaweed"":2}","{""FishSmall"":1,""FishBig"":4,""CanSmall"":0,""CanBig"":0,""Seaweed"":1}",100,100,-3.333333333,15,-3.333333333,20,7.453559925,7.637626158,2,1,18.33333333,0.184066233,-1,0,"{""FishSmall"":1,""FishBig"":0,""CanSmall"":2,""CanBig"":0,""Seaweed"":0}","{""FishSmall"":0,""FishBig"":3,""CanSmall"":0,""CanBig"":0,""Seaweed"":0}",-3.333333333,20,0.9,1713.9435,0.884615385,2,2,2,2,2,1,0,2,2,2,2,2,2,100,3,0.636363636,-10,0
3626472,5,61,Male,1,5-Apr,0,1,trial_4,,0,0,,4405.85,3618.805,5279.63,"{""FishSmall"":3,""FishBig"":0,""CanSmall"":1,""CanBig"":0,""Seaweed"":2}","{""FishSmall"":1,""FishBig"":0,""CanSmall"":2,""CanBig"":1,""Seaweed"":2}",100,100,3.333333333,-5,3.333333333,0,7.453559925,9.574271078,2,2,-8.333333333,2.120711153,0,0,"{""FishSmall"":2,""FishBig"":0,""CanSmall"":1,""CanBig"":0,""Seaweed"":0}","{""FishSmall"":2,""FishBig"":0,""CanSmall"":0,""CanBig"":1,""Seaweed"":0}",3.333333333,0,0.9,1713.9435,0.884615385,2,2,2,2,2,1,0,2,2,2,2,2,2,100,4,0.636363636,-10,10
3626472,5,61,Male,1,5-Apr,0,1,trial_5,,,,,1994.035,,,"{""FishSmall"":1,""FishBig"":0,""CanSmall"":2,""CanBig"":1,""Seaweed"":2}","{""FishSmall"":1,""FishBig"":1,""CanSmall"":1,""CanBig"":0,""Seaweed"":3}",0,0,-5,3.333333333,-3.333333333,16.66666667,9.574271078,9.428090416,2,3,8.333333333,-0.146180662,1,0,"{""FishSmall"":0,""FishBig"":1,""CanSmall"":1,""CanBig"":1,""Seaweed"":0}","{""FishSmall"":1,""FishBig"":2,""CanSmall"":0,""CanBig"":0,""Seaweed"":0}",-5,16.66666667,0.9,1713.9435,0.884615385,2,2,2,2,2,1,0,2,2,2,2,2,2,100,5,0.636363636,0,0
3626472,5,61,Male,1,5-Apr,0,1,trial_6,,,0,,4605.07,,3127.29,"{""FishSmall"":2,""FishBig"":0,""CanSmall"":2,""CanBig"":0,""Seaweed"":2}","{""FishSmall"":2,""FishBig"":0,""CanSmall"":1,""CanBig"":0,""Seaweed"":3}",0,100,0,1.666666667,6.666666667,6.666666667,8.164965809,6.871842709,2,3,1.666666667,-1.2931231,1,100,"{""FishSmall"":1,""FishBig"":1,""CanSmall"":1,""CanBig"":0,""Seaweed"":0}","{""FishSmall"":1,""FishBig"":1,""CanSmall"":1,""CanBig"":0,""Seaweed"":0}",0,6.666666667,0.9,1713.9435,0.884615385,2,2,2,2,2,1,0,2,2,2,2,2,2,100,6,0.636363636,0,10
3626472,5,61,Male,1,5-Apr,0,1,trial_7,,,,,2534.23,,,"{""FishSmall"":2,""FishBig"":1,""CanSmall"":0,""CanBig"":0,""Seaweed"":3}","{""FishSmall"":2,""FishBig"":0,""CanSmall"":2,""CanBig"":0,""Seaweed"":2}",0,0,6.666666667,0,16.66666667,3.333333333,7.453559925,8.164965809,3,2,-6.666666667,0.711405884,-1,0,"{""FishSmall"":1,""FishBig"":2,""CanSmall"":0,""CanBig"":0,""Seaweed"":0}","{""FishSmall"":2,""FishBig"":0,""CanSmall"":1,""CanBig"":0,""Seaweed"":0}",6.666666667,3.333333333,0.9,1713.9435,0.884615385,2,2,2,2,2,1,0,2,2,2,2,2,2,100,7,0.636363636,0,10
3626472,5,61,Male,1,5-Apr,0,1,trial_8,,,,,3549.1,,,"{""FishSmall"":3,""FishBig"":1,""CanSmall"":0,""CanBig"":0,""Seaweed"":2}","{""FishSmall"":1,""FishBig"":0,""CanSmall"":3,""CanBig"":1,""Seaweed"":1}",0,0,8.333333333,-6.666666667,0,-3.333333333,6.871842709,9.428090416,2,1,-15,2.556247706,-1,0,"{""FishSmall"":2,""FishBig"":0,""CanSmall"":0,""CanBig"":1,""Seaweed"":0}","{""FishSmall"":1,""FishBig"":0,""CanSmall"":2,""CanBig"":0,""Seaweed"":0}",8.333333333,-3.333333333,0.9,1713.9435,0.884615385,2,2,2,2,2,1,0,2,2,2,2,2,2,100,8,0.636363636,10,0
3626472,5,61,Male,1,5-Apr,0,1,trial_9,,0,,,12414.065,7867.525,,"{""FishSmall"":2,""FishBig"":0,""CanSmall"":1,""CanBig"":0,""Seaweed"":3}","{""FishSmall"":3,""FishBig"":1,""CanSmall"":1,""CanBig"":0,""Seaweed"":1}",50,50,1.666666667,6.666666667,6.666666667,16.66666667,6.871842709,9.428090416,3,1,5,2.556247706,-2,0,"{""FishSmall"":1,""FishBig"":1,""CanSmall"":1,""CanBig"":0,""Seaweed"":0}","{""FishSmall"":1,""FishBig"":2,""CanSmall"":0,""CanBig"":0,""Seaweed"":0}",1.666666667,16.66666667,0.9,1713.9435,0.884615385,2,2,2,2,2,1,0,2,2,2,2,2,2,100,9,0.636363636,20,20
3626472,5,61,Male,1,5-Apr,0,1,trial_10,,0,,,4983.335,3938.82,,"{""FishSmall"":3,""FishBig"":0,""CanSmall"":0,""CanBig"":0,""Seaweed"":3}","{""FishSmall"":4,""FishBig"":2,""CanSmall"":0,""CanBig"":0,""Seaweed"":0}",100,0,5,13.33333333,10,13.33333333,5,4.714045208,3,0,8.333333333,-0.285954792,-3,-100,"{""FishSmall"":3,""FishBig"":0,""CanSmall"":0,""CanBig"":0,""Seaweed"":0}","{""FishSmall"":2,""FishBig"":1,""CanSmall"":0,""CanBig"":0,""Seaweed"":0}",5,13.33333333,0.9,1713.9435,0.884615385,2,2,2,2,2,1,0,2,2,2,2,2,2,100,10,0.636363636,10,10
3626472,5,61,Male,1,5-Apr,0,,catch_1,0,,,8022.175,,,,"{""FishSmall"":4,""FishBig"":2,""CanSmall"":0,""CanBig"":0,""Seaweed"":0}","{""FishSmall"":4,""FishBig"":2,""CanSmall"":0,""CanBig"":0,""Seaweed"":0}",0,0,,,,,,,,,,,,,"{""FishSmall"":2,""FishBig"":1,""CanSmall"":0,""CanBig"":0,""Seaweed"":0}","{""FishSmall"":2,""FishBig"":1,""CanSmall"":0,""CanBig"":0,""Seaweed"":0}",,,0.9,1713.9435,0.884615385,2,2,2,2,2,1,0,2,2,2,2,2,2,100,,0.636363636,,
3626472,5,61,Male,1,5-Apr,0,0,trial_11,,,0,,6277.15,2522.29,4925.165,"{""FishSmall"":1,""FishBig"":0,""CanSmall"":3,""CanBig"":1,""Seaweed"":1}","{""FishSmall"":1,""FishBig"":0,""CanSmall"":2,""CanBig"":1,""Seaweed"":2}",0,100,-6.666666667,-5,3.333333333,-13.33333333,9.428090416,9.574271078,1,2,1.666666667,0.146180662,1,100,"{""FishSmall"":2,""FishBig"":0,""CanSmall"":1,""CanBig"":0,""Seaweed"":0}","{""FishSmall"":0,""FishBig"":0,""CanSmall"":2,""CanBig"":1,""Seaweed"":0}",3.333333333,-5,0.9,1713.9435,0.884615385,2,2,2,2,2,1,0,2,2,2,2,2,2,100,11,0.636363636,-10,-10
3626472,5,61,Male,1,5-Apr,0,0,trial_12,,,0,,7044.405,,3561.835,"{""FishSmall"":2,""FishBig"":0,""CanSmall"":1,""CanBig"":0,""Seaweed"":3}","{""FishSmall"":1,""FishBig"":0,""CanSmall"":2,""CanBig"":1,""Seaweed"":2}",50,50,1.666666667,-5,-3.333333333,10,6.871842709,9.574271078,3,2,-6.666666667,2.702428368,-1,0,"{""FishSmall"":1,""FishBig"":0,""CanSmall"":2,""CanBig"":0,""Seaweed"":0}","{""FishSmall"":3,""FishBig"":0,""CanSmall"":0,""CanBig"":0,""Seaweed"":0}",-3.333333333,-5,0.9,1713.9435,0.884615385,2,2,2,2,2,1,0,2,2,2,2,2,2,100,12,0.636363636,0,10
3626472,5,61,Male,1,5-Apr,0,1,trial_13,,,,,6226.02,,,"{""FishSmall"":1,""FishBig"":0,""CanSmall"":1,""CanBig"":1,""Seaweed"":3}","{""FishSmall"":2,""FishBig"":1,""CanSmall"":1,""CanBig"":0,""Seaweed"":2}",0,0,-3.333333333,5,3.333333333,6.666666667,9.428090416,9.574271078,3,2,8.333333333,0.146180662,-1,0,"{""FishSmall"":1,""FishBig"":1,""CanSmall"":0,""CanBig"":1,""Seaweed"":0}","{""FishSmall"":1,""FishBig"":1,""CanSmall"":1,""CanBig"":0,""Seaweed"":0}",-3.333333333,6.666666667,0.9,1713.9435,0.884615385,2,2,2,2,2,1,0,2,2,2,2,2,2,100,13,0.636363636,-20,20
3626472,5,61,Male,1,5-Apr,0,1,trial_14,,,,,5222.23,,,"{""FishSmall"":0,""FishBig"":0,""CanSmall"":4,""CanBig"":2,""Seaweed"":0}","{""FishSmall"":1,""FishBig"":0,""CanSmall"":1,""CanBig"":1,""Seaweed"":3}",0,0,-13.33333333,-3.333333333,-13.33333333,0,4.714045208,9.428090416,0,3,10,4.714045208,3,0,"{""FishSmall"":0,""FishBig"":0,""CanSmall"":2,""CanBig"":1,""Seaweed"":0}","{""FishSmall"":2,""FishBig"":0,""CanSmall"":0,""CanBig"":1,""Seaweed"":0}",-13.33333333,0,0.9,1713.9435,0.884615385,2,2,2,2,2,1,0,2,2,2,2,2,2,100,14,0.636363636,-10,10
3626472,5,61,Male,1,5-Apr,0,0,trial_15,,0,,,3974.095,11211.13,,"{""FishSmall"":2,""FishBig"":2,""CanSmall"":0,""CanBig"":0,""Seaweed"":2}","{""FishSmall"":1,""FishBig"":0,""CanSmall"":1,""CanBig"":1,""Seaweed"":3}",50,0,10,-3.333333333,-6.666666667,-10,8.164965809,9.428090416,2,3,-13.33333333,1.263124607,1,-50,"{""FishSmall"":1,""FishBig"":0,""CanSmall"":1,""CanBig"":1,""Seaweed"":0}","{""FishSmall"":1,""FishBig"":0,""CanSmall"":0,""CanBig"":2,""Seaweed"":0}",-6.666666667,-3.333333333,0.9,1713.9435,0.884615385,2,2,2,2,2,1,0,2,2,2,2,2,2,100,15,0.636363636,-20,0
3626472,5,61,Male,1,5-Apr,0,0,trial_16,,0,0,,7362.645,1842.39,3221.63,"{""FishSmall"":1,""FishBig"":0,""CanSmall"":1,""CanBig"":1,""Seaweed"":3}","{""FishSmall"":1,""FishBig"":0,""CanSmall"":3,""CanBig"":1,""Seaweed"":1}",100,50,-3.333333333,-6.666666667,-6.666666667,-3.333333333,9.428090416,9.428090416,3,1,-3.333333333,-1.78E-15,-2,-50,"{""FishSmall"":1,""FishBig"":0,""CanSmall"":1,""CanBig"":1,""Seaweed"":0}","{""FishSmall"":1,""FishBig"":0,""CanSmall"":2,""CanBig"":0,""Seaweed"":0}",-6.666666667,-6.666666667,0.9,1713.9435,0.884615385,2,2,2,2,2,1,0,2,2,2,2,2,2,100,16,0.636363636,-10,-10
3626472,5,61,Male,1,5-Apr,0,1,trial_17,,0,,,1784.885,3840.1,,"{""FishSmall"":2,""FishBig"":3,""CanSmall"":0,""CanBig"":0,""Seaweed"":1}","{""FishSmall"":3,""FishBig"":0,""CanSmall"":0,""CanBig"":0,""Seaweed"":3}",100,0,13.33333333,5,16.66666667,13.33333333,7.453559925,5,1,3,-8.333333333,-2.453559925,2,-100,"{""FishSmall"":1,""FishBig"":2,""CanSmall"":0,""CanBig"":0,""Seaweed"":0}","{""FishSmall"":2,""FishBig"":1,""CanSmall"":0,""CanBig"":0,""Seaweed"":0}",13.33333333,13.33333333,0.9,1713.9435,0.884615385,2,2,2,2,2,1,0,2,2,2,2,2,2,100,17,0.636363636,10,0
3626472,5,61,Male,1,5-Apr,0,1,trial_18,,0,0,,3042.67,2130,1918.925,"{""FishSmall"":1,""FishBig"":0,""CanSmall"":4,""CanBig"":1,""Seaweed"":0}","{""FishSmall"":1,""FishBig"":0,""CanSmall"":1,""CanBig"":1,""Seaweed"":3}",50,100,-8.333333333,-3.333333333,-3.333333333,3.333333333,8.975274679,9.428090416,0,3,5,0.452815737,3,50,"{""FishSmall"":1,""FishBig"":0,""CanSmall"":2,""CanBig"":0,""Seaweed"":0}","{""FishSmall"":2,""FishBig"":0,""CanSmall"":1,""CanBig"":0,""Seaweed"":0}",-8.333333333,3.333333333,0.9,1713.9435,0.884615385,2,2,2,2,2,1,0,2,2,2,2,2,2,100,18,0.636363636,10,10
3626472,5,61,Male,1,5-Apr,0,1,trial_19,,0,,,1578.68,3572.13,,"{""FishSmall"":2,""FishBig"":2,""CanSmall"":0,""CanBig"":0,""Seaweed"":2}","{""FishSmall"":2,""FishBig"":2,""CanSmall"":0,""CanBig"":0,""Seaweed"":2}",50,0,10,10,3.333333333,6.666666667,8.164965809,8.164965809,2,2,0,0,0,-50,"{""FishSmall"":1,""FishBig"":1,""CanSmall"":0,""CanBig"":1,""Seaweed"":0}","{""FishSmall"":1,""FishBig"":1,""CanSmall"":1,""CanBig"":0,""Seaweed"":0}",10,6.666666667,0.9,1713.9435,0.884615385,2,2,2,2,2,1,0,2,2,2,2,2,2,100,19,0.636363636,10,-10
3626472,5,61,Male,1,5-Apr,0,1,trial_20,,,0,,2512.745,,4040.655,"{""FishSmall"":1,""FishBig"":0,""CanSmall"":5,""CanBig"":0,""Seaweed"":0}","{""FishSmall"":1,""FishBig"":0,""CanSmall"":2,""CanBig"":1,""Seaweed"":2}",0,100,-6.666666667,-5,-3.333333333,3.333333333,7.453559925,9.574271078,0,2,1.666666667,2.120711153,2,100,"{""FishSmall"":1,""FishBig"":0,""CanSmall"":2,""CanBig"":0,""Seaweed"":0}","{""FishSmall"":2,""FishBig"":0,""CanSmall"":1,""CanBig"":0,""Seaweed"":0}",-6.666666667,3.333333333,0.9,1713.9435,0.884615385,2,2,2,2,2,1,0,2,2,2,2,2,2,100,20,0.636363636,10,10
3626472,5,61,Male,1,5-Apr,0,,catch_2,1,,,4445.635,,,,"{""FishSmall"":0,""FishBig"":0,""CanSmall"":3,""CanBig"":3,""Seaweed"":0}","{""FishSmall"":0,""FishBig"":0,""CanSmall"":3,""CanBig"":3,""Seaweed"":0}",0,0,,,,,,,,,,,,,"{""FishSmall"":0,""FishBig"":0,""CanSmall"":1,""CanBig"":2,""Seaweed"":0}","{""FishSmall"":0,""FishBig"":0,""CanSmall"":2,""CanBig"":1,""Seaweed"":0}",,,0.9,1713.9435,0.884615385,2,2,2,2,2,1,0,2,2,2,2,2,2,100,,0.636363636,,
3626472,5,61,Male,1,5-Apr,0,1,trial_21,,0,0,,5011.705,21074.19,3113296.03,"{""FishSmall"":0,""FishBig"":0,""CanSmall"":4,""CanBig"":1,""Seaweed"":1}","{""FishSmall"":1,""FishBig"":0,""CanSmall"":1,""CanBig"":1,""Seaweed"":3}",100,100,-10,-3.333333333,-13.33333333,-3.333333333,5.773502692,9.428090416,1,3,6.666666667,3.654587724,2,0,"{""FishSmall"":0,""FishBig"":0,""CanSmall"":2,""CanBig"":1,""Seaweed"":0}","{""FishSmall"":0,""FishBig"":1,""CanSmall"":1,""CanBig"":1,""Seaweed"":0}",-10,-3.333333333,0.9,1713.9435,0.884615385,2,2,2,2,2,1,0,2,2,2,2,2,2,100,21,0.636363636,-20,-10
3626472,5,61,Male,1,5-Apr,0,0,trial_22,,,,,10683.19,,,"{""FishSmall"":3,""FishBig"":1,""CanSmall"":0,""CanBig"":0,""Seaweed"":2}","{""FishSmall"":2,""FishBig"":0,""CanSmall"":4,""CanBig"":0,""Seaweed"":0}",0,0,8.333333333,-3.333333333,13.33333333,-3.333333333,6.871842709,9.428090416,2,0,-11.66666667,2.556247706,-2,0,"{""FishSmall"":2,""FishBig"":1,""CanSmall"":0,""CanBig"":0,""Seaweed"":0}","{""FishSmall"":1,""FishBig"":0,""CanSmall"":2,""CanBig"":0,""Seaweed"":0}",13.33333333,-3.333333333,0.9,1713.9435,0.884615385,2,2,2,2,2,1,0,2,2,2,2,2,2,100,22,0.636363636,20,10
3626472,5,61,Male,1,5-Apr,0,1,trial_23,,0,0,,5439.735,2434.28,9567.575,"{""FishSmall"":2,""FishBig"":1,""CanSmall"":1,""CanBig"":0,""Seaweed"":2}","{""FishSmall"":1,""FishBig"":0,""CanSmall"":2,""CanBig"":1,""Seaweed"":2}",50,100,5,-5,3.333333333,6.666666667,9.574271078,9.574271078,2,2,-10,0,0,50,"{""FishSmall"":1,""FishBig"":1,""CanSmall"":0,""CanBig"":1,""Seaweed"":0}","{""FishSmall"":1,""FishBig"":1,""CanSmall"":1,""CanBig"":0,""Seaweed"":0}",5,6.666666667,0.9,1713.9435,0.884615385,2,2,2,2,2,1,0,2,2,2,2,2,2,100,23,0.636363636,-20,20
3626472,5,61,Male,1,5-Apr,0,1,trial_24,,0,0,,5648.93,5416.965,1502.41,"{""FishSmall"":3,""FishBig"":1,""CanSmall"":0,""CanBig"":0,""Seaweed"":2}","{""FishSmall"":1,""FishBig"":0,""CanSmall"":2,""CanBig"":1,""Seaweed"":2}",50,100,8.333333333,-5,-3.333333333,0,6.871842709,9.574271078,2,2,-13.33333333,2.702428368,0,50,"{""FishSmall"":1,""FishBig"":0,""CanSmall"":2,""CanBig"":0,""Seaweed"":0}","{""FishSmall"":2,""FishBig"":0,""CanSmall"":0,""CanBig"":1,""Seaweed"":0}",8.333333333,0,0.9,1713.9435,0.884615385,2,2,2,2,2,1,0,2,2,2,2,2,2,100,24,0.636363636,10,10
3626472,5,61,Male,1,5-Apr,0,1,trial_25,,,1,,2385.545,,2544.365,"{""FishSmall"":0,""FishBig"":0,""CanSmall"":1,""CanBig"":3,""Seaweed"":2}","{""FishSmall"":0,""FishBig"":0,""CanSmall"":2,""CanBig"":3,""Seaweed"":1}",0,100,-11.66666667,-13.33333333,-10,-16.66666667,8.975274679,7.453559925,2,1,-1.666666667,-1.521714754,-1,100,"{""FishSmall"":1,""FishBig"":0,""CanSmall"":0,""CanBig"":2,""Seaweed"":0}","{""FishSmall"":0,""FishBig"":0,""CanSmall"":1,""CanBig"":2,""Seaweed"":0}",-11.66666667,-16.66666667,0.9,1713.9435,0.884615385,2,2,2,2,2,1,0,2,2,2,2,2,2,100,25,0.636363636,0,0
3626472,5,61,Male,1,5-Apr,0,1,trial_26,,,0,,5445.6,3952.695,3495.555,"{""FishSmall"":0,""FishBig"":0,""CanSmall"":2,""CanBig"":3,""Seaweed"":1}","{""FishSmall"":2,""FishBig"":1,""CanSmall"":1,""CanBig"":0,""Seaweed"":2}",0,50,-13.33333333,5,-16.66666667,-3.333333333,7.453559925,9.574271078,1,2,18.33333333,2.120711153,1,50,"{""FishSmall"":0,""FishBig"":0,""CanSmall"":1,""CanBig"":2,""Seaweed"":0}","{""FishSmall"":0,""FishBig"":1,""CanSmall"":1,""CanBig"":1,""Seaweed"":0}",-13.33333333,-3.333333333,0.9,1713.9435,0.884615385,2,2,2,2,2,1,0,2,2,2,2,2,2,100,26,0.636363636,-20,-20
3626472,5,61,Male,1,5-Apr,0,1,trial_27,,1,0,,12992.16,2012.865,2081.415,"{""FishSmall"":1,""FishBig"":0,""CanSmall"":3,""CanBig"":0,""Seaweed"":2}","{""FishSmall"":2,""FishBig"":2,""CanSmall"":0,""CanBig"":0,""Seaweed"":2}",50,100,-3.333333333,10,-10,3.333333333,7.453559925,8.164965809,2,2,13.33333333,0.711405884,0,50,"{""FishSmall"":0,""FishBig"":0,""CanSmall"":3,""CanBig"":0,""Seaweed"":0}","{""FishSmall"":1,""FishBig"":1,""CanSmall"":0,""CanBig"":1,""Seaweed"":0}",-3.333333333,3.333333333,0.9,1713.9435,0.884615385,2,2,2,2,2,1,0,2,2,2,2,2,2,100,27,0.636363636,0,-20
3626472,5,61,Male,1,5-Apr,0,0,trial_28,,0,0,,1133.25,2316.315,3111.395,"{""FishSmall"":2,""FishBig"":2,""CanSmall"":0,""CanBig"":0,""Seaweed"":2}","{""FishSmall"":3,""FishBig"":1,""CanSmall"":1,""CanBig"":0,""Seaweed"":1}",100,50,10,6.666666667,13.33333333,3.333333333,8.164965809,9.428090416,2,1,-3.333333333,1.263124607,-1,-50,"{""FishSmall"":2,""FishBig"":1,""CanSmall"":0,""CanBig"":0,""Seaweed"":0}","{""FishSmall"":2,""FishBig"":0,""CanSmall"":1,""CanBig"":0,""Seaweed"":0}",13.33333333,6.666666667,0.9,1713.9435,0.884615385,2,2,2,2,2,1,0,2,2,2,2,2,2,100,28,0.636363636,10,10
3626472,5,61,Male,1,5-Apr,0,0,trial_29,,0,0,,4338.905,3958.775,8618.935,"{""FishSmall"":2,""FishBig"":1,""CanSmall"":0,""CanBig"":0,""Seaweed"":3}","{""FishSmall"":2,""FishBig"":0,""CanSmall"":1,""CanBig"":0,""Seaweed"":3}",50,50,6.666666667,1.666666667,13.33333333,3.333333333,7.453559925,6.871842709,3,3,-5,-0.581717216,0,0,"{""FishSmall"":2,""FishBig"":1,""CanSmall"":0,""CanBig"":0,""Seaweed"":0}","{""FishSmall"":2,""FishBig"":0,""CanSmall"":1,""CanBig"":0,""Seaweed"":0}",13.33333333,1.666666667,0.9,1713.9435,0.884615385,2,2,2,2,2,1,0,2,2,2,2,2,2,100,29,0.636363636,10,10
3626472,5,61,Male,1,5-Apr,0,1,trial_30,,,0,,2609.465,1718.43,2018.395,"{""FishSmall"":0,""FishBig"":0,""CanSmall"":3,""CanBig"":3,""Seaweed"":0}","{""FishSmall"":4,""FishBig"":0,""CanSmall"":1,""CanBig"":0,""Seaweed"":1}",0,50,-15,5,-16.66666667,3.333333333,5,7.637626158,0,1,20,2.637626158,1,50,"{""FishSmall"":0,""FishBig"":0,""CanSmall"":1,""CanBig"":2,""Seaweed"":0}","{""FishSmall"":2,""FishBig"":0,""CanSmall"":1,""CanBig"":0,""Seaweed"":0}",-15,3.333333333,0.9,1713.9435,0.884615385,2,2,2,2,2,1,0,2,2,2,2,2,2,100,30,0.636363636,-20,10
3627213,5,63,Male,1,5-Apr,0,0,trial_1,,,,,5004.34,,,"{""FishSmall"":0,""FishBig"":1,""CanSmall"":0,""CanBig"":1,""Seaweed"":4}","{""FishSmall"":0,""FishBig"":0,""CanSmall"":2,""CanBig"":3,""Seaweed"":1}",0,50,0,-13.33333333,-20,-16.66666667,11.54700538,7.453559925,4,1,-13.33333333,-4.093445459,-3,50,"{""FishSmall"":0,""FishBig"":0,""CanSmall"":0,""CanBig"":3,""Seaweed"":0}","{""FishSmall"":0,""FishBig"":0,""CanSmall"":1,""CanBig"":2,""Seaweed"":0}",-20,-13.33333333,1,2425.96,0.961538462,2,2,2,2,2,2,2,1,2,2,2,2,2,100,1,0.615384615,0,0
3627213,5,63,Male,1,5-Apr,0,0,trial_2,,0,0,,3470.93,2515.795,8218.3,"{""FishSmall"":2,""FishBig"":2,""CanSmall"":0,""CanBig"":0,""Seaweed"":2}","{""FishSmall"":1,""FishBig"":3,""CanSmall"":0,""CanBig"":0,""Seaweed"":2}",100,100,10,11.66666667,13.33333333,16.66666667,8.164965809,8.975274679,2,2,1.666666667,0.810308869,0,0,"{""FishSmall"":2,""FishBig"":1,""CanSmall"":0,""CanBig"":0,""Seaweed"":0}","{""FishSmall"":1,""FishBig"":2,""CanSmall"":0,""CanBig"":0,""Seaweed"":0}",13.33333333,11.66666667,1,2425.96,0.961538462,2,2,2,2,2,2,2,1,2,2,2,2,2,100,2,0.615384615,10,20
3627213,5,63,Male,1,5-Apr,0,0,trial_3,,0,0,,5753.73,1779.085,11225.455,"{""FishSmall"":1,""FishBig"":1,""CanSmall"":1,""CanBig"":0,""Seaweed"":3}","{""FishSmall"":1,""FishBig"":2,""CanSmall"":0,""CanBig"":0,""Seaweed"":3}",50,50,3.333333333,8.333333333,13.33333333,10,9.428090416,8.975274679,3,3,5,-0.452815737,0,0,"{""FishSmall"":2,""FishBig"":1,""CanSmall"":0,""CanBig"":0,""Seaweed"":0}","{""FishSmall"":0,""FishBig"":2,""CanSmall"":1,""CanBig"":0,""Seaweed"":0}",13.33333333,8.333333333,1,2425.96,0.961538462,2,2,2,2,2,2,2,1,2,2,2,2,2,100,3,0.615384615,10,20
3627213,5,63,Male,1,5-Apr,0,0,trial_4,,1,0,,5072.26,13236.985,18432.055,"{""FishSmall"":1,""FishBig"":0,""CanSmall"":3,""CanBig"":0,""Seaweed"":2}","{""FishSmall"":1,""FishBig"":0,""CanSmall"":3,""CanBig"":1,""Seaweed"":1}",50,50,-3.333333333,-6.666666667,3.333333333,-6.666666667,7.453559925,9.428090416,2,1,-3.333333333,1.974530491,-1,0,"{""FishSmall"":2,""FishBig"":0,""CanSmall"":1,""CanBig"":0,""Seaweed"":0}","{""FishSmall"":1,""FishBig"":0,""CanSmall"":1,""CanBig"":1,""Seaweed"":0}",3.333333333,-6.666666667,1,2425.96,0.961538462,2,2,2,2,2,2,2,1,2,2,2,2,2,100,4,0.615384615,0,10
3627213,5,63,Male,1,5-Apr,0,1,trial_5,,1,0,,5181.33,9256.415,7572.995,"{""FishSmall"":4,""FishBig"":0,""CanSmall"":2,""CanBig"":0,""Seaweed"":0}","{""FishSmall"":2,""FishBig"":1,""CanSmall"":1,""CanBig"":0,""Seaweed"":2}",50,50,3.333333333,5,3.333333333,6.666666667,9.428090416,9.574271078,0,2,1.666666667,0.146180662,2,0,"{""FishSmall"":2,""FishBig"":0,""CanSmall"":1,""CanBig"":0,""Seaweed"":0}","{""FishSmall"":1,""FishBig"":1,""CanSmall"":1,""CanBig"":0,""Seaweed"":0}",3.333333333,6.666666667,1,2425.96,0.961538462,2,2,2,2,2,2,2,1,2,2,2,2,2,100,5,0.615384615,0,20
3627213,5,63,Male,1,5-Apr,0,1,trial_6,,,0,,6360.285,,11695.755,"{""FishSmall"":1,""FishBig"":0,""CanSmall"":3,""CanBig"":1,""Seaweed"":1}","{""FishSmall"":3,""FishBig"":1,""CanSmall"":1,""CanBig"":0,""Seaweed"":1}",50,50,-6.666666667,6.666666667,0,6.666666667,9.428090416,9.428090416,1,1,13.33333333,1.78E-15,0,0,"{""FishSmall"":0,""FishBig"":1,""CanSmall"":2,""CanBig"":0,""Seaweed"":0}","{""FishSmall"":1,""FishBig"":1,""CanSmall"":1,""CanBig"":0,""Seaweed"":0}",-6.666666667,6.666666667,1,2425.96,0.961538462,2,2,2,2,2,2,2,1,2,2,2,2,2,100,6,0.615384615,-10,20
3627213,5,63,Male,1,5-Apr,0,1,trial_7,,0,,,4631.635,2455.025,,"{""FishSmall"":0,""FishBig"":0,""CanSmall"":3,""CanBig"":1,""Seaweed"":2}","{""FishSmall"":2,""FishBig"":1,""CanSmall"":0,""CanBig"":0,""Seaweed"":3}",100,0,-8.333333333,6.666666667,-13.33333333,6.666666667,6.871842709,7.453559925,2,3,15,0.581717216,1,-100,"{""FishSmall"":0,""FishBig"":0,""CanSmall"":2,""CanBig"":1,""Seaweed"":0}","{""FishSmall"":1,""FishBig"":1,""CanSmall"":1,""CanBig"":0,""Seaweed"":0}",-8.333333333,6.666666667,1,2425.96,0.961538462,2,2,2,2,2,2,2,1,2,2,2,2,2,100,7,0.615384615,-20,0
3627213,5,63,Male,1,5-Apr,0,0,trial_8,,,1,,5537.535,,2175.44,"{""FishSmall"":0,""FishBig"":0,""CanSmall"":2,""CanBig"":3,""Seaweed"":1}","{""FishSmall"":1,""FishBig"":3,""CanSmall"":0,""CanBig"":0,""Seaweed"":2}",0,100,-13.33333333,11.66666667,-16.66666667,6.666666667,7.453559925,8.975274679,1,2,25,1.521714754,1,100,"{""FishSmall"":0,""FishBig"":0,""CanSmall"":1,""CanBig"":2,""Seaweed"":0}","{""FishSmall"":0,""FishBig"":2,""CanSmall"":0,""CanBig"":1,""Seaweed"":0}",-16.66666667,11.66666667,1,2425.96,0.961538462,2,2,2,2,2,2,2,1,2,2,2,2,2,100,8,0.615384615,0,0
3627213,5,63,Male,1,5-Apr,0,1,trial_9,,,0,,4127.27,2486.175,7896.405,"{""FishSmall"":0,""FishBig"":0,""CanSmall"":2,""CanBig"":2,""Seaweed"":2}","{""FishSmall"":3,""FishBig"":1,""CanSmall"":0,""CanBig"":0,""Seaweed"":2}",0,100,-10,8.333333333,-16.66666667,6.666666667,8.164965809,6.871842709,2,2,18.33333333,-1.2931231,0,100,"{""FishSmall"":0,""FishBig"":0,""CanSmall"":1,""CanBig"":2,""Seaweed"":0}","{""FishSmall"":1,""FishBig"":1,""CanSmall"":1,""CanBig"":0,""Seaweed"":0}",-10,6.666666667,1,2425.96,0.961538462,2,2,2,2,2,2,2,1,2,2,2,2,2,100,9,0.615384615,-20,-10
3627213,5,63,Male,1,5-Apr,0,0,trial_10,,0,,,4405.3,8654.875,2039.99,"{""FishSmall"":3,""FishBig"":0,""CanSmall"":2,""CanBig"":0,""Seaweed"":1}","{""FishSmall"":3,""FishBig"":1,""CanSmall"":0,""CanBig"":0,""Seaweed"":2}",100,0,1.666666667,8.333333333,3.333333333,10,8.975274679,6.871842709,1,2,6.666666667,-2.103431969,1,-100,"{""FishSmall"":2,""FishBig"":0,""CanSmall"":1,""CanBig"":0,""Seaweed"":0}","{""FishSmall"":3,""FishBig"":0,""CanSmall"":0,""CanBig"":0,""Seaweed"":0}",3.333333333,8.333333333,1,2425.96,0.961538462,2,2,2,2,2,2,2,1,2,2,2,2,2,100,10,0.615384615,10,10
3627213,5,63,Male,1,5-Apr,0,,catch_1,0,,,6152.205,,,,"{""FishSmall"":4,""FishBig"":2,""CanSmall"":0,""CanBig"":0,""Seaweed"":0}","{""FishSmall"":4,""FishBig"":2,""CanSmall"":0,""CanBig"":0,""Seaweed"":0}",0,0,,,,,,,,,,,,,"{""FishSmall"":2,""FishBig"":1,""CanSmall"":0,""CanBig"":0,""Seaweed"":0}","{""FishSmall"":3,""FishBig"":0,""CanSmall"":0,""CanBig"":0,""Seaweed"":0}",,,1,2425.96,0.961538462,2,2,2,2,2,2,2,1,2,2,2,2,2,100,,0.615384615,,
3627213,5,63,Male,1,5-Apr,0,1,trial_11,,,1,,3953.845,,6446.33,"{""FishSmall"":1,""FishBig"":0,""CanSmall"":1,""CanBig"":1,""Seaweed"":3}","{""FishSmall"":1,""FishBig"":0,""CanSmall"":4,""CanBig"":0,""Seaweed"":1}",50,100,-3.333333333,-5,-3.333333333,-10,9.428090416,7.637626158,3,1,-1.666666667,-1.790464258,-2,50,"{""FishSmall"":1,""FishBig"":0,""CanSmall"":2,""CanBig"":0,""Seaweed"":0}","{""FishSmall"":0,""FishBig"":0,""CanSmall"":3,""CanBig"":0,""Seaweed"":0}",-3.333333333,-10,1,2425.96,0.961538462,2,2,2,2,2,2,2,1,2,2,2,2,2,100,11,0.615384615,0,0
3627213,5,63,Male,1,5-Apr,0,0,trial_12,,0,,,5473.105,3277.035,,"{""FishSmall"":1,""FishBig"":0,""CanSmall"":2,""CanBig"":0,""Seaweed"":3}","{""FishSmall"":0,""FishBig"":0,""CanSmall"":4,""CanBig"":2,""Seaweed"":0}",100,0,-1.666666667,-13.33333333,10,-10,6.871842709,4.714045208,3,0,-11.66666667,-2.157797501,-3,-100,"{""FishSmall"":0,""FishBig"":2,""CanSmall"":1,""CanBig"":0,""Seaweed"":0}","{""FishSmall"":0,""FishBig"":0,""CanSmall"":3,""CanBig"":0,""Seaweed"":0}",10,-13.33333333,1,2425.96,0.961538462,2,2,2,2,2,2,2,1,2,2,2,2,2,100,12,0.615384615,-10,-10
3627213,5,63,Male,1,5-Apr,0,1,trial_13,,0,0,,4117.735,6586.225,6688.96,"{""FishSmall"":2,""FishBig"":0,""CanSmall"":1,""CanBig"":0,""Seaweed"":3}","{""FishSmall"":2,""FishBig"":0,""CanSmall"":2,""CanBig"":0,""Seaweed"":2}",50,100,1.666666667,0,3.333333333,-3.333333333,6.871842709,8.164965809,3,2,-1.666666667,1.2931231,-1,50,"{""FishSmall"":2,""FishBig"":0,""CanSmall"":1,""CanBig"":0,""Seaweed"":0}","{""FishSmall"":1,""FishBig"":0,""CanSmall"":2,""CanBig"":0,""Seaweed"":0}",1.666666667,-3.333333333,1,2425.96,0.961538462,2,2,2,2,2,2,2,1,2,2,2,2,2,100,13,0.615384615,-10,-10
3627213,5,63,Male,1,5-Apr,0,0,trial_14,,0,0,,4399.955,4074.705,3375.615,"{""FishSmall"":1,""FishBig"":0,""CanSmall"":2,""CanBig"":1,""Seaweed"":2}","{""FishSmall"":3,""FishBig"":0,""CanSmall"":0,""CanBig"":0,""Seaweed"":3}",50,50,-5,5,-6.666666667,3.333333333,9.574271078,5,2,3,10,-4.574271078,1,0,"{""FishSmall"":1,""FishBig"":0,""CanSmall"":1,""CanBig"":1,""Seaweed"":0}","{""FishSmall"":1,""FishBig"":1,""CanSmall"":0,""CanBig"":1,""Seaweed"":0}",-6.666666667,5,1,2425.96,0.961538462,2,2,2,2,2,2,2,1,2,2,2,2,2,100,14,0.615384615,-10,-20
3627213,5,63,Male,1,5-Apr,0,1,trial_15,,0,,,3528.065,1453,,"{""FishSmall"":0,""FishBig"":4,""CanSmall"":0,""CanBig"":0,""Seaweed"":2}","{""FishSmall"":2,""FishBig"":1,""CanSmall"":1,""CanBig"":0,""Seaweed"":2}",100,0,13.33333333,5,6.666666667,3.333333333,9.428090416,9.574271078,2,2,-8.333333333,0.146180662,0,-100,"{""FishSmall"":0,""FishBig"":2,""CanSmall"":0,""CanBig"":1,""Seaweed"":0}","{""FishSmall"":2,""FishBig"":0,""CanSmall"":1,""CanBig"":0,""Seaweed"":0}",13.33333333,3.333333333,1,2425.96,0.961538462,2,2,2,2,2,2,2,1,2,2,2,2,2,100,15,0.615384615,20,0
3627213,5,63,Male,1,5-Apr,0,0,trial_16,,0,1,,4022.3,3813.165,7556.385,"{""FishSmall"":4,""FishBig"":2,""CanSmall"":0,""CanBig"":0,""Seaweed"":0}","{""FishSmall"":0,""FishBig"":0,""CanSmall"":2,""CanBig"":3,""Seaweed"":1}",100,50,13.33333333,-13.33333333,13.33333333,-6.666666667,4.714045208,7.453559925,0,1,-26.66666667,2.739514717,1,-50,"{""FishSmall"":2,""FishBig"":1,""CanSmall"":0,""CanBig"":0,""Seaweed"":0}","{""FishSmall"":0,""FishBig"":1,""CanSmall"":0,""CanBig"":2,""Seaweed"":0}",13.33333333,-13.33333333,1,2425.96,0.961538462,2,2,2,2,2,2,2,1,2,2,2,2,2,100,16,0.615384615,10,0
3627213,5,63,Male,1,5-Apr,0,1,trial_17,,0,0,,6093.72,3752.855,5711.33,"{""FishSmall"":1,""FishBig"":0,""CanSmall"":2,""CanBig"":1,""Seaweed"":2}","{""FishSmall"":1,""FishBig"":1,""CanSmall"":1,""CanBig"":0,""Seaweed"":3}",100,100,-5,3.333333333,-13.33333333,3.333333333,9.574271078,9.428090416,2,3,8.333333333,-0.146180662,1,0,"{""FishSmall"":0,""FishBig"":0,""CanSmall"":2,""CanBig"":1,""Seaweed"":0}","{""FishSmall"":2,""FishBig"":0,""CanSmall"":1,""CanBig"":0,""Seaweed"":0}",-5,3.333333333,1,2425.96,0.961538462,2,2,2,2,2,2,2,1,2,2,2,2,2,100,17,0.615384615,-20,-10
3627213,5,63,Male,1,5-Apr,0,1,trial_18,,0,,,7763.13,2886.245,,"{""FishSmall"":2,""FishBig"":0,""CanSmall"":1,""CanBig"":0,""Seaweed"":3}","{""FishSmall"":0,""FishBig"":0,""CanSmall"":2,""CanBig"":2,""Seaweed"":2}",100,0,1.666666667,-10,-13.33333333,10,6.871842709,8.164965809,3,2,-11.66666667,1.2931231,-1,-100,"{""FishSmall"":0,""FishBig"":0,""CanSmall"":2,""CanBig"":1,""Seaweed"":0}","{""FishSmall"":0,""FishBig"":2,""CanSmall"":1,""CanBig"":0,""Seaweed"":0}",1.666666667,10,1,2425.96,0.961538462,2,2,2,2,2,2,2,1,2,2,2,2,2,100,18,0.615384615,-20,0
3627213,5,63,Male,1,5-Apr,0,0,trial_19,,0,,,6777.645,7257.45,1549.155,"{""FishSmall"":2,""FishBig"":2,""CanSmall"":0,""CanBig"":0,""Seaweed"":2}","{""FishSmall"":0,""FishBig"":0,""CanSmall"":4,""CanBig"":1,""Seaweed"":1}",50,0,10,-10,16.66666667,-3.333333333,8.164965809,5.773502692,2,1,-20,-2.391463117,-1,-50,"{""FishSmall"":1,""FishBig"":2,""CanSmall"":0,""CanBig"":0,""Seaweed"":0}","{""FishSmall"":0,""FishBig"":1,""CanSmall"":1,""CanBig"":1,""Seaweed"":0}",16.66666667,-10,1,2425.96,0.961538462,2,2,2,2,2,2,2,1,2,2,2,2,2,100,19,0.615384615,20,-20
3627213,5,63,Male,1,5-Apr,0,1,trial_20,,,0,,5187.805,,1493.58,"{""FishSmall"":1,""FishBig"":0,""CanSmall"":1,""CanBig"":1,""Seaweed"":3}","{""FishSmall"":3,""FishBig"":2,""CanSmall"":0,""CanBig"":0,""Seaweed"":1}",0,50,-3.333333333,11.66666667,3.333333333,13.33333333,9.428090416,6.871842709,3,1,15,-2.556247706,-2,50,"{""FishSmall"":1,""FishBig"":1,""CanSmall"":0,""CanBig"":1,""Seaweed"":0}","{""FishSmall"":2,""FishBig"":1,""CanSmall"":0,""CanBig"":0,""Seaweed"":0}",-3.333333333,13.33333333,1,2425.96,0.961538462,2,2,2,2,2,2,2,1,2,2,2,2,2,100,20,0.615384615,0,10
3627213,5,63,Male,1,5-Apr,0,,catch_2,1,,,6611.935,,,,"{""FishSmall"":0,""FishBig"":0,""CanSmall"":3,""CanBig"":3,""Seaweed"":0}","{""FishSmall"":0,""FishBig"":0,""CanSmall"":3,""CanBig"":3,""Seaweed"":0}",0,0,,,,,,,,,,,,,"{""FishSmall"":0,""FishBig"":0,""CanSmall"":2,""CanBig"":1,""Seaweed"":0}","{""FishSmall"":0,""FishBig"":0,""CanSmall"":1,""CanBig"":2,""Seaweed"":0}",,,1,2425.96,0.961538462,2,2,2,2,2,2,2,1,2,2,2,2,2,100,,0.615384615,,
3627213,5,63,Male,1,5-Apr,0,0,trial_21,,0,,,2490.52,5604.91,,"{""FishSmall"":0,""FishBig"":1,""CanSmall"":0,""CanBig"":1,""Seaweed"":4}","{""FishSmall"":0,""FishBig"":0,""CanSmall"":3,""CanBig"":1,""Seaweed"":2}",50,50,0,-8.333333333,-3.333333333,-13.33333333,11.54700538,6.871842709,4,2,-8.333333333,-4.675162674,-2,0,"{""FishSmall"":0,""FishBig"":1,""CanSmall"":1,""CanBig"":1,""Seaweed"":0}","{""FishSmall"":0,""FishBig"":0,""CanSmall"":2,""CanBig"":1,""Seaweed"":0}",-3.333333333,-8.333333333,1,2425.96,0.961538462,2,2,2,2,2,2,2,1,2,2,2,2,2,100,21,0.615384615,20,0
3627213,5,63,Male,1,5-Apr,0,0,trial_22,,,,,3436.81,,,"{""FishSmall"":0,""FishBig"":4,""CanSmall"":0,""CanBig"":0,""Seaweed"":2}","{""FishSmall"":0,""FishBig"":0,""CanSmall"":0,""CanBig"":4,""Seaweed"":2}",0,0,13.33333333,-13.33333333,6.666666667,-10,9.428090416,9.428090416,2,2,-26.66666667,0,0,0,"{""FishSmall"":0,""FishBig"":2,""CanSmall"":0,""CanBig"":1,""Seaweed"":0}","{""FishSmall"":1,""FishBig"":0,""CanSmall"":0,""CanBig"":2,""Seaweed"":0}",6.666666667,-13.33333333,1,2425.96,0.961538462,2,2,2,2,2,2,2,1,2,2,2,2,2,100,22,0.615384615,0,0
3627213,5,63,Male,1,5-Apr,0,1,trial_23,,,0,,3549.84,,1572.43,"{""FishSmall"":0,""FishBig"":0,""CanSmall"":1,""CanBig"":2,""Seaweed"":3}","{""FishSmall"":1,""FishBig"":1,""CanSmall"":1,""CanBig"":0,""Seaweed"":3}",0,50,-8.333333333,3.333333333,-3.333333333,16.66666667,8.975274679,9.428090416,3,3,11.66666667,0.452815737,0,50,"{""FishSmall"":0,""FishBig"":1,""CanSmall"":1,""CanBig"":1,""Seaweed"":0}","{""FishSmall"":1,""FishBig"":2,""CanSmall"":0,""CanBig"":0,""Seaweed"":0}",-8.333333333,16.66666667,1,2425.96,0.961538462,2,2,2,2,2,2,2,1,2,2,2,2,2,100,23,0.615384615,0,20
3627213,5,63,Male,1,5-Apr,0,0,trial_24,,,0,,7044.985,,2526.33,"{""FishSmall"":1,""FishBig"":2,""CanSmall"":0,""CanBig"":0,""Seaweed"":3}","{""FishSmall"":0,""FishBig"":0,""CanSmall"":4,""CanBig"":0,""Seaweed"":2}",50,50,8.333333333,-6.666666667,6.666666667,0,8.975274679,4.714045208,3,2,-15,-4.261229471,-1,0,"{""FishSmall"":1,""FishBig"":1,""CanSmall"":1,""CanBig"":0,""Seaweed"":0}","{""FishSmall"":0,""FishBig"":1,""CanSmall"":2,""CanBig"":0,""Seaweed"":0}",6.666666667,-6.666666667,1,2425.96,0.961538462,2,2,2,2,2,2,2,1,2,2,2,2,2,100,24,0.615384615,10,-10
3627213,5,63,Male,1,5-Apr,0,1,trial_25,,,,,4544.865,,,"{""FishSmall"":0,""FishBig"":0,""CanSmall"":2,""CanBig"":2,""Seaweed"":2}","{""FishSmall"":2,""FishBig"":0,""CanSmall"":3,""CanBig"":0,""Seaweed"":1}",0,50,-10,-1.666666667,-6.666666667,-3.333333333,8.164965809,8.975274679,2,1,8.333333333,0.810308869,-1,50,"{""FishSmall"":1,""FishBig"":0,""CanSmall"":1,""CanBig"":1,""Seaweed"":0}","{""FishSmall"":1,""FishBig"":0,""CanSmall"":2,""CanBig"":0,""Seaweed"":0}",-10,-3.333333333,1,2425.96,0.961538462,2,2,2,2,2,2,2,1,2,2,2,2,2,100,25,0.615384615,-10,10
3627213,5,63,Male,1,5-Apr,0,1,trial_26,,,0,,2279.785,,2837.995,"{""FishSmall"":0,""FishBig"":0,""CanSmall"":0,""CanBig"":4,""Seaweed"":2}","{""FishSmall"":0,""FishBig"":0,""CanSmall"":2,""CanBig"":1,""Seaweed"":3}",50,100,-13.33333333,-6.666666667,-20,0,9.428090416,7.453559925,2,3,6.666666667,-1.974530491,1,50,"{""FishSmall"":0,""FishBig"":0,""CanSmall"":0,""CanBig"":3,""Seaweed"":0}","{""FishSmall"":0,""FishBig"":1,""CanSmall"":2,""CanBig"":0,""Seaweed"":0}",-13.33333333,0,1,2425.96,0.961538462,2,2,2,2,2,2,2,1,2,2,2,2,2,100,26,0.615384615,0,-10
3627213,5,63,Male,1,5-Apr,0,0,trial_27,,1,0,,4566.075,1931.855,7745.455,"{""FishSmall"":0,""FishBig"":0,""CanSmall"":3,""CanBig"":1,""Seaweed"":2}","{""FishSmall"":1,""FishBig"":0,""CanSmall"":3,""CanBig"":1,""Seaweed"":1}",100,50,-8.333333333,-6.666666667,-13.33333333,-13.33333333,6.871842709,9.428090416,2,1,1.666666667,2.556247706,-1,-50,"{""FishSmall"":0,""FishBig"":0,""CanSmall"":2,""CanBig"":1,""Seaweed"":0}","{""FishSmall"":0,""FishBig"":0,""CanSmall"":2,""CanBig"":1,""Seaweed"":0}",-13.33333333,-6.666666667,1,2425.96,0.961538462,2,2,2,2,2,2,2,1,2,2,2,2,2,100,27,0.615384615,0,-10
3627213,5,63,Male,1,5-Apr,0,1,trial_28,,0,0,,7628.62,1987.925,3692.015,"{""FishSmall"":1,""FishBig"":0,""CanSmall"":3,""CanBig"":1,""Seaweed"":1}","{""FishSmall"":2,""FishBig"":0,""CanSmall"":2,""CanBig"":0,""Seaweed"":2}",50,50,-6.666666667,0,-6.666666667,-6.666666667,9.428090416,8.164965809,1,2,6.666666667,-1.263124607,1,0,"{""FishSmall"":1,""FishBig"":0,""CanSmall"":1,""CanBig"":1,""Seaweed"":0}","{""FishSmall"":1,""FishBig"":0,""CanSmall"":1,""CanBig"":1,""Seaweed"":0}",-6.666666667,-6.666666667,1,2425.96,0.961538462,2,2,2,2,2,2,2,1,2,2,2,2,2,100,28,0.615384615,-20,-10
3627213,5,63,Male,1,5-Apr,0,0,trial_29,,0,0,,1122.48,1158.68,7366.27,"{""FishSmall"":1,""FishBig"":0,""CanSmall"":1,""CanBig"":1,""Seaweed"":3}","{""FishSmall"":2,""FishBig"":0,""CanSmall"":1,""CanBig"":0,""Seaweed"":3}",100,100,-3.333333333,1.666666667,-6.666666667,16.66666667,9.428090416,6.871842709,3,3,5,-2.556247706,0,0,"{""FishSmall"":1,""FishBig"":0,""CanSmall"":1,""CanBig"":1,""Seaweed"":0}","{""FishSmall"":1,""FishBig"":2,""CanSmall"":0,""CanBig"":0,""Seaweed"":0}",-6.666666667,1.666666667,1,2425.96,0.961538462,2,2,2,2,2,2,2,1,2,2,2,2,2,100,29,0.615384615,-20,10
3627213,5,63,Male,1,5-Apr,0,1,trial_30,,0,0,,3822.495,1894.655,7470.485,"{""FishSmall"":1,""FishBig"":0,""CanSmall"":2,""CanBig"":1,""Seaweed"":2}","{""FishSmall"":1,""FishBig"":4,""CanSmall"":0,""CanBig"":0,""Seaweed"":1}",50,100,-5,15,3.333333333,10,9.574271078,7.637626158,2,1,20,-1.936644919,-1,50,"{""FishSmall"":1,""FishBig"":1,""CanSmall"":0,""CanBig"":1,""Seaweed"":0}","{""FishSmall"":0,""FishBig"":2,""CanSmall"":1,""CanBig"":0,""Seaweed"":0}",-5,10,1,2425.96,0.961538462,2,2,2,2,2,2,2,1,2,2,2,2,2,100,30,0.615384615,10,-10
3651730,4,57,Female,2,5-Apr,0,1,trial_1,,0,0,,5888,8013,10551,"{""FishSmall"":1,""FishBig"":3,""CanSmall"":0,""CanBig"":0,""Seaweed"":2}","{""FishSmall"":0,""FishBig"":0,""CanSmall"":2,""CanBig"":1,""Seaweed"":3}",100,100,11.66666667,-6.666666667,16.66666667,-13.33333333,8.975274679,7.453559925,2,3,-18.33333333,-1.521714754,1,0,"{""FishSmall"":1,""FishBig"":2,""CanSmall"":0,""CanBig"":0,""Seaweed"":0}","{""FishSmall"":0,""FishBig"":0,""CanSmall"":2,""CanBig"":1,""Seaweed"":0}",11.66666667,-13.33333333,0.8,1816.1,0.846153846,2,1,1,2,2,2,2,2,2,2,1,2,1,100,1,0.676470588,10,-10
3651730,4,57,Female,2,5-Apr,0,1,trial_2,,,,,11191,,,"{""FishSmall"":0,""FishBig"":0,""CanSmall"":2,""CanBig"":2,""Seaweed"":2}","{""FishSmall"":2,""FishBig"":1,""CanSmall"":1,""CanBig"":0,""Seaweed"":2}",0,0,-10,5,-20,6.666666667,8.164965809,9.574271078,2,2,15,1.409305268,0,0,"{""FishSmall"":0,""FishBig"":0,""CanSmall"":0,""CanBig"":3,""Seaweed"":0}","{""FishSmall"":1,""FishBig"":1,""CanSmall"":1,""CanBig"":0,""Seaweed"":0}",-10,6.666666667,0.8,1816.1,0.846153846,2,1,1,2,2,2,2,2,2,2,1,2,1,100,2,0.676470588,-20,-10
3651730,4,57,Female,2,5-Apr,0,0,trial_3,,0,0,,5127,7444,10293,"{""FishSmall"":3,""FishBig"":2,""CanSmall"":0,""CanBig"":0,""Seaweed"":1}","{""FishSmall"":1,""FishBig"":0,""CanSmall"":1,""CanBig"":1,""Seaweed"":3}",100,100,11.66666667,-3.333333333,16.66666667,6.666666667,6.871842709,9.428090416,1,3,-15,2.556247706,2,0,"{""FishSmall"":1,""FishBig"":2,""CanSmall"":0,""CanBig"":0,""Seaweed"":0}","{""FishSmall"":0,""FishBig"":2,""CanSmall"":0,""CanBig"":1,""Seaweed"":0}",16.66666667,-3.333333333,0.8,1816.1,0.846153846,2,1,1,2,2,2,2,2,2,2,1,2,1,100,3,0.676470588,20,-20
3651730,4,57,Female,2,5-Apr,0,1,trial_4,,0,0,,15601,7931,7964,"{""FishSmall"":1,""FishBig"":0,""CanSmall"":1,""CanBig"":1,""Seaweed"":3}","{""FishSmall"":1,""FishBig"":0,""CanSmall"":1,""CanBig"":1,""Seaweed"":3}",50,100,-3.333333333,-3.333333333,-13.33333333,-6.666666667,9.428090416,9.428090416,3,3,0,0,0,50,"{""FishSmall"":0,""FishBig"":0,""CanSmall"":2,""CanBig"":1,""Seaweed"":0}","{""FishSmall"":1,""FishBig"":0,""CanSmall"":1,""CanBig"":1,""Seaweed"":0}",-3.333333333,-6.666666667,0.8,1816.1,0.846153846,2,1,1,2,2,2,2,2,2,2,1,2,1,100,4,0.676470588,-10,10
3651730,4,57,Female,2,5-Apr,0,1,trial_5,,,,,6873,,,"{""FishSmall"":1,""FishBig"":0,""CanSmall"":4,""CanBig"":0,""Seaweed"":1}","{""FishSmall"":3,""FishBig"":2,""CanSmall"":0,""CanBig"":0,""Seaweed"":1}",50,50,-5,11.66666667,-10,16.66666667,7.637626158,6.871842709,1,1,16.66666667,-0.765783449,0,0,"{""FishSmall"":0,""FishBig"":0,""CanSmall"":3,""CanBig"":0,""Seaweed"":0}","{""FishSmall"":1,""FishBig"":2,""CanSmall"":0,""CanBig"":0,""Seaweed"":0}",-5,16.66666667,0.8,1816.1,0.846153846,2,1,1,2,2,2,2,2,2,2,1,2,1,100,5,0.676470588,-10,0
3651730,4,57,Female,2,5-Apr,0,0,trial_6,,0,0,,7569,7666,13226,"{""FishSmall"":3,""FishBig"":1,""CanSmall"":0,""CanBig"":0,""Seaweed"":2}","{""FishSmall"":2,""FishBig"":0,""CanSmall"":2,""CanBig"":0,""Seaweed"":2}",100,50,8.333333333,0,13.33333333,13.33333333,6.871842709,8.164965809,2,2,-8.333333333,1.2931231,0,-50,"{""FishSmall"":2,""FishBig"":1,""CanSmall"":0,""CanBig"":0,""Seaweed"":0}","{""FishSmall"":2,""FishBig"":1,""CanSmall"":0,""CanBig"":0,""Seaweed"":0}",13.33333333,0,0.8,1816.1,0.846153846,2,1,1,2,2,2,2,2,2,2,1,2,1,100,6,0.676470588,10,10
3651730,4,57,Female,2,5-Apr,0,1,trial_7,,,,,6444,,,"{""FishSmall"":0,""FishBig"":0,""CanSmall"":2,""CanBig"":3,""Seaweed"":1}","{""FishSmall"":1,""FishBig"":0,""CanSmall"":2,""CanBig"":1,""Seaweed"":2}",0,0,-13.33333333,-5,-13.33333333,-13.33333333,7.453559925,9.574271078,1,2,8.333333333,2.120711153,1,0,"{""FishSmall"":0,""FishBig"":0,""CanSmall"":2,""CanBig"":1,""Seaweed"":0}","{""FishSmall"":0,""FishBig"":0,""CanSmall"":2,""CanBig"":1,""Seaweed"":0}",-13.33333333,-13.33333333,0.8,1816.1,0.846153846,2,1,1,2,2,2,2,2,2,2,1,2,1,100,7,0.676470588,0,-10
3651730,4,57,Female,2,5-Apr,0,0,trial_8,,,0,,8821,,7617,"{""FishSmall"":4,""FishBig"":0,""CanSmall"":1,""CanBig"":0,""Seaweed"":1}","{""FishSmall"":3,""FishBig"":2,""CanSmall"":0,""CanBig"":0,""Seaweed"":1}",0,50,5,11.66666667,3.333333333,13.33333333,7.637626158,6.871842709,1,1,6.666666667,-0.765783449,0,50,"{""FishSmall"":2,""FishBig"":0,""CanSmall"":1,""CanBig"":0,""Seaweed"":0}","{""FishSmall"":2,""FishBig"":1,""CanSmall"":0,""CanBig"":0,""Seaweed"":0}",3.333333333,11.66666667,0.8,1816.1,0.846153846,2,1,1,2,2,2,2,2,2,2,1,2,1,100,8,0.676470588,0,10
3651730,4,57,Female,2,5-Apr,0,1,trial_9,,,0,,4778,,9368,"{""FishSmall"":0,""FishBig"":0,""CanSmall"":4,""CanBig"":1,""Seaweed"":1}","{""FishSmall"":1,""FishBig"":0,""CanSmall"":2,""CanBig"":1,""Seaweed"":2}",50,100,-10,-5,-10,6.666666667,5.773502692,9.574271078,1,2,5,3.800768386,1,50,"{""FishSmall"":0,""FishBig"":0,""CanSmall"":3,""CanBig"":0,""Seaweed"":0}","{""FishSmall"":1,""FishBig"":1,""CanSmall"":1,""CanBig"":0,""Seaweed"":0}",-10,6.666666667,0.8,1816.1,0.846153846,2,1,1,2,2,2,2,2,2,2,1,2,1,100,9,0.676470588,0,-10
3651730,4,57,Female,2,5-Apr,0,0,trial_10,,0,0,,8107,9036,7647,"{""FishSmall"":0,""FishBig"":0,""CanSmall"":3,""CanBig"":2,""Seaweed"":1}","{""FishSmall"":0,""FishBig"":0,""CanSmall"":2,""CanBig"":2,""Seaweed"":2}",100,50,-11.66666667,-10,-20,-16.66666667,6.871842709,8.164965809,1,2,1.666666667,1.2931231,1,-50,"{""FishSmall"":0,""FishBig"":0,""CanSmall"":0,""CanBig"":3,""Seaweed"":0}","{""FishSmall"":0,""FishBig"":0,""CanSmall"":1,""CanBig"":2,""Seaweed"":0}",-20,-10,0.8,1816.1,0.846153846,2,1,1,2,2,2,2,2,2,2,1,2,1,100,10,0.676470588,-20,-10
3651730,4,57,Female,2,5-Apr,0,,catch_1,0,,,7342,,,,"{""FishSmall"":4,""FishBig"":2,""CanSmall"":0,""CanBig"":0,""Seaweed"":0}","{""FishSmall"":4,""FishBig"":2,""CanSmall"":0,""CanBig"":0,""Seaweed"":0}",0,0,,,,,,,,,,,,,"{""FishSmall"":1,""FishBig"":2,""CanSmall"":0,""CanBig"":0,""Seaweed"":0}","{""FishSmall"":2,""FishBig"":1,""CanSmall"":0,""CanBig"":0,""Seaweed"":0}",,,0.8,1816.1,0.846153846,2,1,1,2,2,2,2,2,2,2,1,2,1,100,,0.676470588,,
3651730,4,57,Female,2,5-Apr,0,1,trial_11,,0,,,5509,14430,,"{""FishSmall"":1,""FishBig"":0,""CanSmall"":3,""CanBig"":0,""Seaweed"":2}","{""FishSmall"":3,""FishBig"":0,""CanSmall"":1,""CanBig"":0,""Seaweed"":2}",50,0,-3.333333333,3.333333333,-3.333333333,3.333333333,7.453559925,7.453559925,2,2,6.666666667,-8.88E-16,0,-50,"{""FishSmall"":1,""FishBig"":0,""CanSmall"":2,""CanBig"":0,""Seaweed"":0}","{""FishSmall"":2,""FishBig"":0,""CanSmall"":1,""CanBig"":0,""Seaweed"":0}",-3.333333333,3.333333333,0.8,1816.1,0.846153846,2,1,1,2,2,2,2,2,2,2,1,2,1,100,11,0.676470588,-10,0
3651730,4,57,Female,2,5-Apr,0,0,trial_12,,0,0,,8989,11155,8785,"{""FishSmall"":2,""FishBig"":1,""CanSmall"":0,""CanBig"":0,""Seaweed"":3}","{""FishSmall"":1,""FishBig"":0,""CanSmall"":2,""CanBig"":1,""Seaweed"":2}",100,100,6.666666667,-5,-6.666666667,-6.666666667,7.453559925,9.574271078,3,2,-11.66666667,2.120711153,-1,0,"{""FishSmall"":1,""FishBig"":0,""CanSmall"":1,""CanBig"":1,""Seaweed"":0}","{""FishSmall"":1,""FishBig"":0,""CanSmall"":1,""CanBig"":1,""Seaweed"":0}",-6.666666667,-5,0.8,1816.1,0.846153846,2,1,1,2,2,2,2,2,2,2,1,2,1,100,12,0.676470588,-10,-10
3651730,4,57,Female,2,5-Apr,0,1,trial_13,,,,,3539,,,"{""FishSmall"":0,""FishBig"":0,""CanSmall"":4,""CanBig"":0,""Seaweed"":2}","{""FishSmall"":2,""FishBig"":3,""CanSmall"":0,""CanBig"":0,""Seaweed"":1}",50,0,-6.666666667,13.33333333,-6.666666667,16.66666667,4.714045208,7.453559925,2,1,20,2.739514717,-1,-50,"{""FishSmall"":1,""FishBig"":0,""CanSmall"":1,""CanBig"":1,""Seaweed"":0}","{""FishSmall"":1,""FishBig"":2,""CanSmall"":0,""CanBig"":0,""Seaweed"":0}",-6.666666667,16.66666667,0.8,1816.1,0.846153846,2,1,1,2,2,2,2,2,2,2,1,2,1,100,13,0.676470588,-20,0
3651730,4,57,Female,2,5-Apr,0,1,trial_14,,,0,,7581,,9720,"{""FishSmall"":0,""FishBig"":0,""CanSmall"":2,""CanBig"":1,""Seaweed"":3}","{""FishSmall"":3,""FishBig"":0,""CanSmall"":1,""CanBig"":0,""Seaweed"":2}",50,100,-6.666666667,3.333333333,-16.66666667,3.333333333,7.453559925,7.453559925,3,2,10,-8.88E-16,-1,50,"{""FishSmall"":0,""FishBig"":0,""CanSmall"":1,""CanBig"":2,""Seaweed"":0}","{""FishSmall"":2,""FishBig"":0,""CanSmall"":1,""CanBig"":0,""Seaweed"":0}",-6.666666667,3.333333333,0.8,1816.1,0.846153846,2,1,1,2,2,2,2,2,2,2,1,2,1,100,14,0.676470588,-20,10
3651730,4,57,Female,2,5-Apr,0,0,trial_15,,,0,,6306,,7241,"{""FishSmall"":1,""FishBig"":1,""CanSmall"":1,""CanBig"":0,""Seaweed"":3}","{""FishSmall"":2,""FishBig"":1,""CanSmall"":1,""CanBig"":0,""Seaweed"":2}",0,50,3.333333333,5,13.33333333,6.666666667,9.428090416,9.574271078,3,2,1.666666667,0.146180662,-1,50,"{""FishSmall"":2,""FishBig"":1,""CanSmall"":0,""CanBig"":0,""Seaweed"":0}","{""FishSmall"":1,""FishBig"":1,""CanSmall"":1,""CanBig"":0,""Seaweed"":0}",13.33333333,5,0.8,1816.1,0.846153846,2,1,1,2,2,2,2,2,2,2,1,2,1,100,15,0.676470588,10,10
3651730,4,57,Female,2,5-Apr,0,0,trial_16,,0,,,22393,9521,,"{""FishSmall"":3,""FishBig"":1,""CanSmall"":1,""CanBig"":0,""Seaweed"":1}","{""FishSmall"":0,""FishBig"":0,""CanSmall"":1,""CanBig"":3,""Seaweed"":2}",100,0,6.666666667,-11.66666667,13.33333333,-3.333333333,9.428090416,8.975274679,1,2,-18.33333333,-0.452815737,1,-100,"{""FishSmall"":2,""FishBig"":1,""CanSmall"":0,""CanBig"":0,""Seaweed"":0}","{""FishSmall"":0,""FishBig"":1,""CanSmall"":1,""CanBig"":1,""Seaweed"":0}",13.33333333,-11.66666667,0.8,1816.1,0.846153846,2,1,1,2,2,2,2,2,2,2,1,2,1,100,16,0.676470588,10,0
3651730,4,57,Female,2,5-Apr,0,1,trial_17,,,,,4251,,,"{""FishSmall"":2,""FishBig"":0,""CanSmall"":2,""CanBig"":0,""Seaweed"":2}","{""FishSmall"":0,""FishBig"":0,""CanSmall"":1,""CanBig"":3,""Seaweed"":2}",0,0,0,-11.66666667,3.333333333,-16.66666667,8.164965809,8.975274679,2,2,-11.66666667,0.810308869,0,0,"{""FishSmall"":2,""FishBig"":0,""CanSmall"":1,""CanBig"":0,""Seaweed"":0}","{""FishSmall"":0,""FishBig"":0,""CanSmall"":1,""CanBig"":2,""Seaweed"":0}",0,-16.66666667,0.8,1816.1,0.846153846,2,1,1,2,2,2,2,2,2,2,1,2,1,100,17,0.676470588,0,0
3651730,4,57,Female,2,5-Apr,0,0,trial_18,,1,0,,8550,22598,13296,"{""FishSmall"":1,""FishBig"":0,""CanSmall"":5,""CanBig"":0,""Seaweed"":0}","{""FishSmall"":1,""FishBig"":0,""CanSmall"":3,""CanBig"":1,""Seaweed"":1}",100,50,-6.666666667,-6.666666667,-10,-3.333333333,7.453559925,9.428090416,0,1,0,1.974530491,1,-50,"{""FishSmall"":0,""FishBig"":0,""CanSmall"":3,""CanBig"":0,""Seaweed"":0}","{""FishSmall"":1,""FishBig"":0,""CanSmall"":2,""CanBig"":0,""Seaweed"":0}",-10,-6.666666667,0.8,1816.1,0.846153846,2,1,1,2,2,2,2,2,2,2,1,2,1,100,18,0.676470588,0,10
3651730,4,57,Female,2,5-Apr,0,0,trial_19,,0,,,8371,7487,,"{""FishSmall"":3,""FishBig"":1,""CanSmall"":1,""CanBig"":0,""Seaweed"":1}","{""FishSmall"":0,""FishBig"":0,""CanSmall"":4,""CanBig"":2,""Seaweed"":0}",50,50,6.666666667,-13.33333333,6.666666667,-16.66666667,9.428090416,4.714045208,1,0,-20,-4.714045208,-1,0,"{""FishSmall"":1,""FishBig"":1,""CanSmall"":1,""CanBig"":0,""Seaweed"":0}","{""FishSmall"":0,""FishBig"":0,""CanSmall"":1,""CanBig"":2,""Seaweed"":0}",6.666666667,-13.33333333,0.8,1816.1,0.846153846,2,1,1,2,2,2,2,2,2,2,1,2,1,100,19,0.676470588,-10,0
3651730,4,57,Female,2,5-Apr,0,1,trial_20,,1,0,,3673,7152,10545,"{""FishSmall"":1,""FishBig"":0,""CanSmall"":2,""CanBig"":1,""Seaweed"":2}","{""FishSmall"":1,""FishBig"":2,""CanSmall"":0,""CanBig"":0,""Seaweed"":3}",50,50,-5,8.333333333,3.333333333,3.333333333,9.574271078,8.975274679,2,3,13.33333333,-0.598996399,1,0,"{""FishSmall"":2,""FishBig"":0,""CanSmall"":1,""CanBig"":0,""Seaweed"":0}","{""FishSmall"":1,""FishBig"":1,""CanSmall"":0,""CanBig"":1,""Seaweed"":0}",-5,3.333333333,0.8,1816.1,0.846153846,2,1,1,2,2,2,2,2,2,2,1,2,1,100,20,0.676470588,0,20
3651730,4,57,Female,2,5-Apr,0,,catch_2,1,,,5061,,,,"{""FishSmall"":0,""FishBig"":0,""CanSmall"":3,""CanBig"":3,""Seaweed"":0}","{""FishSmall"":0,""FishBig"":0,""CanSmall"":3,""CanBig"":3,""Seaweed"":0}",0,0,,,,,,,,,,,,,"{""FishSmall"":0,""FishBig"":0,""CanSmall"":1,""CanBig"":2,""Seaweed"":0}","{""FishSmall"":0,""FishBig"":0,""CanSmall"":3,""CanBig"":0,""Seaweed"":0}",,,0.8,1816.1,0.846153846,2,1,1,2,2,2,2,2,2,2,1,2,1,100,,0.676470588,,
3651730,4,57,Female,2,5-Apr,0,0,trial_21,,1,,,4784,5096,,"{""FishSmall"":3,""FishBig"":0,""CanSmall"":0,""CanBig"":0,""Seaweed"":3}","{""FishSmall"":1,""FishBig"":4,""CanSmall"":0,""CanBig"":0,""Seaweed"":1}",100,0,5,15,-10,6.666666667,5,7.637626158,3,1,10,2.637626158,-2,-100,"{""FishSmall"":1,""FishBig"":0,""CanSmall"":0,""CanBig"":2,""Seaweed"":0}","{""FishSmall"":0,""FishBig"":2,""CanSmall"":0,""CanBig"":1,""Seaweed"":0}",-10,15,0.8,1816.1,0.846153846,2,1,1,2,2,2,2,2,2,2,1,2,1,100,21,0.676470588,0,20
3651730,4,57,Female,2,5-Apr,0,1,trial_22,,0,,,4707,12504,,"{""FishSmall"":3,""FishBig"":0,""CanSmall"":1,""CanBig"":0,""Seaweed"":2}","{""FishSmall"":0,""FishBig"":0,""CanSmall"":0,""CanBig"":4,""Seaweed"":2}",100,0,3.333333333,-13.33333333,3.333333333,-10,7.453559925,9.428090416,2,2,-16.66666667,1.974530491,0,-100,"{""FishSmall"":2,""FishBig"":0,""CanSmall"":1,""CanBig"":0,""Seaweed"":0}","{""FishSmall"":1,""FishBig"":0,""CanSmall"":0,""CanBig"":2,""Seaweed"":0}",3.333333333,-10,0.8,1816.1,0.846153846,2,1,1,2,2,2,2,2,2,2,1,2,1,100,22,0.676470588,10,-20
3651730,4,57,Female,2,5-Apr,0,0,trial_23,,1,,,5517,8845,,"{""FishSmall"":0,""FishBig"":0,""CanSmall"":2,""CanBig"":2,""Seaweed"":2}","{""FishSmall"":3,""FishBig"":2,""CanSmall"":0,""CanBig"":0,""Seaweed"":1}",50,0,-10,11.66666667,-13.33333333,6.666666667,8.164965809,6.871842709,2,1,21.66666667,-1.2931231,-1,-50,"{""FishSmall"":0,""FishBig"":0,""CanSmall"":2,""CanBig"":1,""Seaweed"":0}","{""FishSmall"":1,""FishBig"":1,""CanSmall"":1,""CanBig"":0,""Seaweed"":0}",-13.33333333,11.66666667,0.8,1816.1,0.846153846,2,1,1,2,2,2,2,2,2,2,1,2,1,100,23,0.676470588,0,20
3651730,4,57,Female,2,5-Apr,0,0,trial_24,,1,0,,5246,5865,7706,"{""FishSmall"":1,""FishBig"":0,""CanSmall"":4,""CanBig"":1,""Seaweed"":0}","{""FishSmall"":2,""FishBig"":1,""CanSmall"":1,""CanBig"":0,""Seaweed"":2}",100,50,-8.333333333,5,-13.33333333,6.666666667,8.975274679,9.574271078,0,2,13.33333333,0.598996399,2,-50,"{""FishSmall"":0,""FishBig"":0,""CanSmall"":2,""CanBig"":1,""Seaweed"":0}","{""FishSmall"":1,""FishBig"":1,""CanSmall"":1,""CanBig"":0,""Seaweed"":0}",-13.33333333,5,0.8,1816.1,0.846153846,2,1,1,2,2,2,2,2,2,2,1,2,1,100,24,0.676470588,0,-10
3651730,4,57,Female,2,5-Apr,0,0,trial_25,,0,,,2436,4355,,"{""FishSmall"":0,""FishBig"":1,""CanSmall"":0,""CanBig"":1,""Seaweed"":4}","{""FishSmall"":2,""FishBig"":2,""CanSmall"":0,""CanBig"":0,""Seaweed"":2}",100,0,0,10,13.33333333,20,11.54700538,8.164965809,4,2,10,-3.382039575,-2,-100,"{""FishSmall"":2,""FishBig"":1,""CanSmall"":0,""CanBig"":0,""Seaweed"":0}","{""FishSmall"":0,""FishBig"":3,""CanSmall"":0,""CanBig"":0,""Seaweed"":0}",13.33333333,10,0.8,1816.1,0.846153846,2,1,1,2,2,2,2,2,2,2,1,2,1,100,25,0.676470588,20,20
3651730,4,57,Female,2,5-Apr,0,0,trial_26,,,0,,3395,,7586,"{""FishSmall"":0,""FishBig"":0,""CanSmall"":3,""CanBig"":1,""Seaweed"":2}","{""FishSmall"":1,""FishBig"":1,""CanSmall"":1,""CanBig"":0,""Seaweed"":3}",50,100,-8.333333333,3.333333333,-16.66666667,-3.333333333,6.871842709,9.428090416,2,3,11.66666667,2.556247706,1,50,"{""FishSmall"":0,""FishBig"":0,""CanSmall"":1,""CanBig"":2,""Seaweed"":0}","{""FishSmall"":0,""FishBig"":1,""CanSmall"":1,""CanBig"":1,""Seaweed"":0}",-16.66666667,3.333333333,0.8,1816.1,0.846153846,2,1,1,2,2,2,2,2,2,2,1,2,1,100,26,0.676470588,-20,-10
3651730,4,57,Female,2,5-Apr,0,0,trial_27,,,1,,2850,,10310,"{""FishSmall"":1,""FishBig"":0,""CanSmall"":1,""CanBig"":1,""Seaweed"":3}","{""FishSmall"":1,""FishBig"":2,""CanSmall"":0,""CanBig"":0,""Seaweed"":3}",0,100,-3.333333333,8.333333333,13.33333333,3.333333333,9.428090416,8.975274679,3,3,11.66666667,-0.452815737,0,100,"{""FishSmall"":2,""FishBig"":1,""CanSmall"":0,""CanBig"":0,""Seaweed"":0}","{""FishSmall"":1,""FishBig"":1,""CanSmall"":0,""CanBig"":1,""Seaweed"":0}",13.33333333,8.333333333,0.8,1816.1,0.846153846,2,1,1,2,2,2,2,2,2,2,1,2,1,100,27,0.676470588,20,0
3651730,4,57,Female,2,5-Apr,0,0,trial_28,,,0,,6152,,9255,"{""FishSmall"":3,""FishBig"":1,""CanSmall"":0,""CanBig"":0,""Seaweed"":2}","{""FishSmall"":2,""FishBig"":1,""CanSmall"":0,""CanBig"":0,""Seaweed"":3}",0,100,8.333333333,6.666666667,13.33333333,3.333333333,6.871842709,7.453559925,2,3,-1.666666667,0.581717216,1,100,"{""FishSmall"":2,""FishBig"":1,""CanSmall"":0,""CanBig"":0,""Seaweed"":0}","{""FishSmall"":1,""FishBig"":1,""CanSmall"":0,""CanBig"":1,""Seaweed"":0}",13.33333333,6.666666667,0.8,1816.1,0.846153846,2,1,1,2,2,2,2,2,2,2,1,2,1,100,28,0.676470588,0,20
3651730,4,57,Female,2,5-Apr,0,0,trial_29,,,0,,7047,,19489,"{""FishSmall"":4,""FishBig"":1,""CanSmall"":1,""CanBig"":0,""Seaweed"":0}","{""FishSmall"":0,""FishBig"":5,""CanSmall"":0,""CanBig"":0,""Seaweed"":1}",0,100,8.333333333,16.66666667,13.33333333,20,8.975274679,7.453559925,0,1,8.333333333,-1.521714754,1,100,"{""FishSmall"":2,""FishBig"":1,""CanSmall"":0,""CanBig"":0,""Seaweed"":0}","{""FishSmall"":0,""FishBig"":3,""CanSmall"":0,""CanBig"":0,""Seaweed"":0}",13.33333333,16.66666667,0.8,1816.1,0.846153846,2,1,1,2,2,2,2,2,2,2,1,2,1,100,29,0.676470588,20,20
3651730,4,57,Female,2,5-Apr,0,0,trial_30,,0,,,1507,3776,,"{""FishSmall"":3,""FishBig"":1,""CanSmall"":1,""CanBig"":0,""Seaweed"":1}","{""FishSmall"":3,""FishBig"":0,""CanSmall"":1,""CanBig"":0,""Seaweed"":2}",100,50,6.666666667,3.333333333,13.33333333,-3.333333333,9.428090416,7.453559925,1,2,-3.333333333,-1.974530491,1,-50,"{""FishSmall"":2,""FishBig"":1,""CanSmall"":0,""CanBig"":0,""Seaweed"":0}","{""FishSmall"":1,""FishBig"":0,""CanSmall"":2,""CanBig"":0,""Seaweed"":0}",13.33333333,3.333333333,0.8,1816.1,0.846153846,2,1,1,2,2,2,2,2,2,2,1,2,1,100,30,0.676470588,10,-10
3652123,10,123,Female,2,12-Oct,3,0,trial_1,,1,,,7293.425,1868.59,,"{""FishSmall"":1,""FishBig"":0,""CanSmall"":2,""CanBig"":1,""Seaweed"":2}","{""FishSmall"":1,""FishBig"":0,""CanSmall"":1,""CanBig"":1,""Seaweed"":3}",100,50,-5,-3.333333333,-16.66666667,3.333333333,9.574271078,9.428090416,2,3,1.666666667,-0.146180662,1,-50,"{""FishSmall"":0,""FishBig"":0,""CanSmall"":1,""CanBig"":2,""Seaweed"":0}","{""FishSmall"":1,""FishBig"":1,""CanSmall"":0,""CanBig"":1,""Seaweed"":0}",-16.66666667,-3.333333333,1,1227.9065,1,2,2,2,2,2,2,2,2,2,2,2,2,2,100,1,1,0,20
3652123,10,123,Female,2,12-Oct,3,0,trial_2,,0,,,6877.46,3268.915,,"{""FishSmall"":1,""FishBig"":0,""CanSmall"":2,""CanBig"":1,""Seaweed"":2}","{""FishSmall"":0,""FishBig"":0,""CanSmall"":3,""CanBig"":3,""Seaweed"":0}",50,0,-5,-15,0,-10,9.574271078,5,2,0,-10,-4.574271078,-2,-50,"{""FishSmall"":2,""FishBig"":0,""CanSmall"":0,""CanBig"":1,""Seaweed"":0}","{""FishSmall"":0,""FishBig"":0,""CanSmall"":3,""CanBig"":0,""Seaweed"":0}",0,-15,1,1227.9065,1,2,2,2,2,2,2,2,2,2,2,2,2,2,100,2,1,10,0
3652123,10,123,Female,2,12-Oct,3,0,trial_3,,,,,2410.02,,,"{""FishSmall"":0,""FishBig"":4,""CanSmall"":0,""CanBig"":0,""Seaweed"":2}","{""FishSmall"":3,""FishBig"":0,""CanSmall"":1,""CanBig"":0,""Seaweed"":2}",50,0,13.33333333,3.333333333,20,13.33333333,9.428090416,7.453559925,2,2,-10,-1.974530491,0,-50,"{""FishSmall"":0,""FishBig"":3,""CanSmall"":0,""CanBig"":0,""Seaweed"":0}","{""FishSmall"":2,""FishBig"":1,""CanSmall"":0,""CanBig"":0,""Seaweed"":0}",20,3.333333333,1,1227.9065,1,2,2,2,2,2,2,2,2,2,2,2,2,2,100,3,1,0,10
3652123,10,123,Female,2,12-Oct,3,1,trial_4,,,1,,1634.425,,1951.235,"{""FishSmall"":0,""FishBig"":0,""CanSmall"":4,""CanBig"":1,""Seaweed"":1}","{""FishSmall"":1,""FishBig"":0,""CanSmall"":3,""CanBig"":1,""Seaweed"":1}",0,100,-10,-6.666666667,-13.33333333,-3.333333333,5.773502692,9.428090416,1,1,3.333333333,3.654587724,0,100,"{""FishSmall"":0,""FishBig"":0,""CanSmall"":2,""CanBig"":1,""Seaweed"":0}","{""FishSmall"":1,""FishBig"":0,""CanSmall"":2,""CanBig"":0,""Seaweed"":0}",-10,-3.333333333,1,1227.9065,1,2,2,2,2,2,2,2,2,2,2,2,2,2,100,4,1,-20,0
3652123,10,123,Female,2,12-Oct,3,0,trial_5,,0,,,2003.34,1458.21,,"{""FishSmall"":4,""FishBig"":1,""CanSmall"":0,""CanBig"":0,""Seaweed"":1}","{""FishSmall"":2,""FishBig"":0,""CanSmall"":4,""CanBig"":0,""Seaweed"":0}",50,50,10,-3.333333333,0,-3.333333333,5.773502692,9.428090416,1,0,-13.33333333,3.654587724,-1,0,"{""FishSmall"":2,""FishBig"":0,""CanSmall"":0,""CanBig"":1,""Seaweed"":0}","{""FishSmall"":1,""FishBig"":0,""CanSmall"":2,""CanBig"":0,""Seaweed"":0}",0,-3.333333333,1,1227.9065,1,2,2,2,2,2,2,2,2,2,2,2,2,2,100,5,1,-20,0
3652123,10,123,Female,2,12-Oct,3,1,trial_6,,1,,,2323.645,4338.135,,"{""FishSmall"":0,""FishBig"":0,""CanSmall"":1,""CanBig"":2,""Seaweed"":3}","{""FishSmall"":3,""FishBig"":2,""CanSmall"":0,""CanBig"":0,""Seaweed"":1}",100,0,-8.333333333,11.66666667,-6.666666667,16.66666667,8.975274679,6.871842709,3,1,20,-2.103431969,-2,-100,"{""FishSmall"":0,""FishBig"":1,""CanSmall"":0,""CanBig"":2,""Seaweed"":0}","{""FishSmall"":1,""FishBig"":2,""CanSmall"":0,""CanBig"":0,""Seaweed"":0}",-8.333333333,16.66666667,1,1227.9065,1,2,2,2,2,2,2,2,2,2,2,2,2,2,100,6,1,0,20
3652123,10,123,Female,2,12-Oct,3,0,trial_7,,0,,,2117.6,1927.375,,"{""FishSmall"":2,""FishBig"":0,""CanSmall"":2,""CanBig"":0,""Seaweed"":2}","{""FishSmall"":4,""FishBig"":1,""CanSmall"":0,""CanBig"":0,""Seaweed"":1}",50,0,0,10,3.333333333,0,8.164965809,5.773502692,2,1,10,-2.391463117,-1,-50,"{""FishSmall"":2,""FishBig"":0,""CanSmall"":1,""CanBig"":0,""Seaweed"":0}","{""FishSmall"":2,""FishBig"":0,""CanSmall"":0,""CanBig"":1,""Seaweed"":0}",3.333333333,10,1,1227.9065,1,2,2,2,2,2,2,2,2,2,2,2,2,2,100,7,1,10,0
3652123,10,123,Female,2,12-Oct,3,0,trial_8,,,,,1918.32,,,"{""FishSmall"":3,""FishBig"":1,""CanSmall"":1,""CanBig"":0,""Seaweed"":1}","{""FishSmall"":0,""FishBig"":0,""CanSmall"":3,""CanBig"":2,""Seaweed"":1}",50,0,6.666666667,-11.66666667,16.66666667,-16.66666667,9.428090416,6.871842709,1,1,-18.33333333,-2.556247706,0,-50,"{""FishSmall"":1,""FishBig"":2,""CanSmall"":0,""CanBig"":0,""Seaweed"":0}","{""FishSmall"":0,""FishBig"":0,""CanSmall"":1,""CanBig"":2,""Seaweed"":0}",16.66666667,-11.66666667,1,1227.9065,1,2,2,2,2,2,2,2,2,2,2,2,2,2,100,8,1,0,-20
3652123,10,123,Female,2,12-Oct,3,1,trial_9,,,,,1423.225,,,"{""FishSmall"":0,""FishBig"":0,""CanSmall"":1,""CanBig"":2,""Seaweed"":3}","{""FishSmall"":3,""FishBig"":0,""CanSmall"":1,""CanBig"":0,""Seaweed"":2}",0,50,-8.333333333,3.333333333,-6.666666667,0,8.975274679,7.453559925,3,2,11.66666667,-1.521714754,-1,50,"{""FishSmall"":1,""FishBig"":0,""CanSmall"":1,""CanBig"":1,""Seaweed"":0}","{""FishSmall"":2,""FishBig"":0,""CanSmall"":0,""CanBig"":1,""Seaweed"":0}",-8.333333333,0,1,1227.9065,1,2,2,2,2,2,2,2,2,2,2,2,2,2,100,9,1,-20,0
3652123,10,123,Female,2,12-Oct,3,0,trial_10,,,0,,2135.135,,1643.145,"{""FishSmall"":1,""FishBig"":1,""CanSmall"":1,""CanBig"":0,""Seaweed"":3}","{""FishSmall"":3,""FishBig"":3,""CanSmall"":0,""CanBig"":0,""Seaweed"":0}",0,100,3.333333333,15,16.66666667,16.66666667,9.428090416,5,3,0,11.66666667,-4.428090416,-3,100,"{""FishSmall"":1,""FishBig"":2,""CanSmall"":0,""CanBig"":0,""Seaweed"":0}","{""FishSmall"":1,""FishBig"":2,""CanSmall"":0,""CanBig"":0,""Seaweed"":0}",16.66666667,15,1,1227.9065,1,2,2,2,2,2,2,2,2,2,2,2,2,2,100,10,1,20,20
3652123,10,123,Female,2,12-Oct,3,,catch_1,0,,,5306.78,,,,"{""FishSmall"":4,""FishBig"":2,""CanSmall"":0,""CanBig"":0,""Seaweed"":0}","{""FishSmall"":4,""FishBig"":2,""CanSmall"":0,""CanBig"":0,""Seaweed"":0}",0,0,,,,,,,,,,,,,"{""FishSmall"":2,""FishBig"":1,""CanSmall"":0,""CanBig"":0,""Seaweed"":0}","{""FishSmall"":2,""FishBig"":1,""CanSmall"":0,""CanBig"":0,""Seaweed"":0}",,,1,1227.9065,1,2,2,2,2,2,2,2,2,2,2,2,2,2,100,,1,,
3652123,10,123,Female,2,12-Oct,3,0,trial_11,,,,,3020.035,,,"{""FishSmall"":3,""FishBig"":1,""CanSmall"":1,""CanBig"":0,""Seaweed"":1}","{""FishSmall"":2,""FishBig"":1,""CanSmall"":1,""CanBig"":0,""Seaweed"":2}",50,0,6.666666667,5,13.33333333,10,9.428090416,9.574271078,1,2,-1.666666667,0.146180662,1,-50,"{""FishSmall"":2,""FishBig"":1,""CanSmall"":0,""CanBig"":0,""Seaweed"":0}","{""FishSmall"":3,""FishBig"":0,""CanSmall"":0,""CanBig"":0,""Seaweed"":0}",13.33333333,5,1,1227.9065,1,2,2,2,2,2,2,2,2,2,2,2,2,2,100,11,1,10,0
3652123,10,123,Female,2,12-Oct,3,1,trial_12,,,,,5555.075,,,"{""FishSmall"":2,""FishBig"":2,""CanSmall"":0,""CanBig"":0,""Seaweed"":2}","{""FishSmall"":1,""FishBig"":1,""CanSmall"":1,""CanBig"":0,""Seaweed"":3}",0,0,10,3.333333333,16.66666667,-3.333333333,8.164965809,9.428090416,2,3,-6.666666667,1.263124607,1,0,"{""FishSmall"":1,""FishBig"":2,""CanSmall"":0,""CanBig"":0,""Seaweed"":0}","{""FishSmall"":0,""FishBig"":1,""CanSmall"":1,""CanBig"":1,""Seaweed"":0}",10,-3.333333333,1,1227.9065,1,2,2,2,2,2,2,2,2,2,2,2,2,2,100,12,1,0,-20
3652123,10,123,Female,2,12-Oct,3,1,trial_13,,,1,,1373.785,,1802.11,"{""FishSmall"":2,""FishBig"":0,""CanSmall"":3,""CanBig"":0,""Seaweed"":1}","{""FishSmall"":0,""FishBig"":0,""CanSmall"":3,""CanBig"":2,""Seaweed"":1}",0,100,-1.666666667,-11.66666667,3.333333333,-13.33333333,8.975274679,6.871842709,1,1,-10,-2.103431969,0,100,"{""FishSmall"":2,""FishBig"":0,""CanSmall"":1,""CanBig"":0,""Seaweed"":0}","{""FishSmall"":0,""FishBig"":0,""CanSmall"":2,""CanBig"":1,""Seaweed"":0}",-1.666666667,-13.33333333,1,1227.9065,1,2,2,2,2,2,2,2,2,2,2,2,2,2,100,13,1,-10,0
3652123,10,123,Female,2,12-Oct,3,1,trial_14,,1,0,,1736.085,4120.305,2865.935,"{""FishSmall"":0,""FishBig"":0,""CanSmall"":3,""CanBig"":2,""Seaweed"":1}","{""FishSmall"":0,""FishBig"":0,""CanSmall"":1,""CanBig"":2,""Seaweed"":3}",50,50,-11.66666667,-8.333333333,-6.666666667,3.333333333,6.871842709,8.975274679,1,3,3.333333333,2.103431969,2,0,"{""FishSmall"":1,""FishBig"":0,""CanSmall"":1,""CanBig"":1,""Seaweed"":0}","{""FishSmall"":2,""FishBig"":0,""CanSmall"":1,""CanBig"":0,""Seaweed"":0}",-11.66666667,3.333333333,1,1227.9065,1,2,2,2,2,2,2,2,2,2,2,2,2,2,100,14,1,0,-10
3652123,10,123,Female,2,12-Oct,3,1,trial_15,,,0,,2032.585,,1624.13,"{""FishSmall"":0,""FishBig"":0,""CanSmall"":1,""CanBig"":4,""Seaweed"":1}","{""FishSmall"":2,""FishBig"":2,""CanSmall"":0,""CanBig"":0,""Seaweed"":2}",0,100,-15,10,-6.666666667,13.33333333,7.637626158,8.164965809,1,2,25,0.527339651,1,100,"{""FishSmall"":1,""FishBig"":0,""CanSmall"":1,""CanBig"":1,""Seaweed"":0}","{""FishSmall"":2,""FishBig"":1,""CanSmall"":0,""CanBig"":0,""Seaweed"":0}",-15,13.33333333,1,1227.9065,1,2,2,2,2,2,2,2,2,2,2,2,2,2,100,15,1,10,10
3652123,10,123,Female,2,12-Oct,3,0,trial_16,,,,,2677.075,,,"{""FishSmall"":2,""FishBig"":0,""CanSmall"":3,""CanBig"":0,""Seaweed"":1}","{""FishSmall"":5,""FishBig"":1,""CanSmall"":0,""CanBig"":0,""Seaweed"":0}",0,0,-1.666666667,11.66666667,0,10,8.975274679,3.726779962,1,0,13.33333333,-5.248494716,-1,0,"{""FishSmall"":0,""FishBig"":1,""CanSmall"":2,""CanBig"":0,""Seaweed"":0}","{""FishSmall"":3,""FishBig"":0,""CanSmall"":0,""CanBig"":0,""Seaweed"":0}",0,11.66666667,1,1227.9065,1,2,2,2,2,2,2,2,2,2,2,2,2,2,100,16,1,-10,0
3652123,10,123,Female,2,12-Oct,3,0,trial_17,,,,,817.735,,,"{""FishSmall"":1,""FishBig"":4,""CanSmall"":0,""CanBig"":0,""Seaweed"":1}","{""FishSmall"":0,""FishBig"":0,""CanSmall"":1,""CanBig"":3,""Seaweed"":2}",50,0,15,-11.66666667,20,-16.66666667,7.637626158,8.975274679,1,2,-26.66666667,1.33764852,1,-50,"{""FishSmall"":0,""FishBig"":3,""CanSmall"":0,""CanBig"":0,""Seaweed"":0}","{""FishSmall"":0,""FishBig"":0,""CanSmall"":1,""CanBig"":2,""Seaweed"":0}",20,-11.66666667,1,1227.9065,1,2,2,2,2,2,2,2,2,2,2,2,2,2,100,17,1,0,-10
3652123,10,123,Female,2,12-Oct,3,1,trial_18,,,1,,1127.465,,1500.3,"{""FishSmall"":1,""FishBig"":0,""CanSmall"":2,""CanBig"":1,""Seaweed"":2}","{""FishSmall"":2,""FishBig"":1,""CanSmall"":1,""CanBig"":0,""Seaweed"":2}",0,50,-5,5,-3.333333333,-6.666666667,9.574271078,9.574271078,2,2,10,0,0,50,"{""FishSmall"":1,""FishBig"":0,""CanSmall"":2,""CanBig"":0,""Seaweed"":0}","{""FishSmall"":1,""FishBig"":0,""CanSmall"":1,""CanBig"":1,""Seaweed"":0}",-5,-6.666666667,1,1227.9065,1,2,2,2,2,2,2,2,2,2,2,2,2,2,100,18,1,0,0
3652123,10,123,Female,2,12-Oct,3,0,trial_19,,1,,,2720.925,2929.075,,"{""FishSmall"":0,""FishBig"":0,""CanSmall"":3,""CanBig"":1,""Seaweed"":2}","{""FishSmall"":4,""FishBig"":1,""CanSmall"":1,""CanBig"":0,""Seaweed"":0}",50,0,-8.333333333,8.333333333,-16.66666667,3.333333333,6.871842709,8.975274679,2,0,16.66666667,2.103431969,-2,-50,"{""FishSmall"":0,""FishBig"":0,""CanSmall"":1,""CanBig"":2,""Seaweed"":0}","{""FishSmall"":2,""FishBig"":0,""CanSmall"":1,""CanBig"":0,""Seaweed"":0}",-16.66666667,8.333333333,1,1227.9065,1,2,2,2,2,2,2,2,2,2,2,2,2,2,100,19,1,0,0
3652123,10,123,Female,2,12-Oct,3,0,trial_20,,,,,1469.7,,,"{""FishSmall"":3,""FishBig"":1,""CanSmall"":0,""CanBig"":0,""Seaweed"":2}","{""FishSmall"":2,""FishBig"":0,""CanSmall"":1,""CanBig"":0,""Seaweed"":3}",50,50,8.333333333,1.666666667,3.333333333,-6.666666667,6.871842709,6.871842709,2,3,-6.666666667,0,1,0,"{""FishSmall"":1,""FishBig"":1,""CanSmall"":0,""CanBig"":1,""Seaweed"":0}","{""FishSmall"":1,""FishBig"":0,""CanSmall"":1,""CanBig"":1,""Seaweed"":0}",3.333333333,1.666666667,1,1227.9065,1,2,2,2,2,2,2,2,2,2,2,2,2,2,100,20,1,10,10
3652123,10,123,Female,2,12-Oct,3,,catch_2,1,,,1600.06,,,,"{""FishSmall"":0,""FishBig"":0,""CanSmall"":3,""CanBig"":3,""Seaweed"":0}","{""FishSmall"":0,""FishBig"":0,""CanSmall"":3,""CanBig"":3,""Seaweed"":0}",0,0,,,,,,,,,,,,,"{""FishSmall"":0,""FishBig"":0,""CanSmall"":1,""CanBig"":2,""Seaweed"":0}","{""FishSmall"":0,""FishBig"":0,""CanSmall"":2,""CanBig"":1,""Seaweed"":0}",,,1,1227.9065,1,2,2,2,2,2,2,2,2,2,2,2,2,2,100,,1,,
3652123,10,123,Female,2,12-Oct,3,0,trial_21,,,1,,3866.42,,1744.375,"{""FishSmall"":3,""FishBig"":0,""CanSmall"":2,""CanBig"":0,""Seaweed"":1}","{""FishSmall"":0,""FishBig"":0,""CanSmall"":3,""CanBig"":3,""Seaweed"":0}",0,50,1.666666667,-15,10,-16.66666667,8.975274679,5,1,0,-16.66666667,-3.975274679,-1,50,"{""FishSmall"":3,""FishBig"":0,""CanSmall"":0,""CanBig"":0,""Seaweed"":0}","{""FishSmall"":0,""FishBig"":0,""CanSmall"":1,""CanBig"":2,""Seaweed"":0}",10,-15,1,1227.9065,1,2,2,2,2,2,2,2,2,2,2,2,2,2,100,21,1,0,0
3652123,10,123,Female,2,12-Oct,3,0,trial_22,,,1,,4449.1,,3251.76,"{""FishSmall"":2,""FishBig"":1,""CanSmall"":0,""CanBig"":0,""Seaweed"":3}","{""FishSmall"":0,""FishBig"":0,""CanSmall"":4,""CanBig"":0,""Seaweed"":2}",50,50,6.666666667,-6.666666667,-3.333333333,0,7.453559925,4.714045208,3,2,-13.33333333,-2.739514717,-1,0,"{""FishSmall"":0,""FishBig"":1,""CanSmall"":1,""CanBig"":1,""Seaweed"":0}","{""FishSmall"":0,""FishBig"":1,""CanSmall"":2,""CanBig"":0,""Seaweed"":0}",-3.333333333,-6.666666667,1,1227.9065,1,2,2,2,2,2,2,2,2,2,2,2,2,2,100,22,1,20,0
3652123,10,123,Female,2,12-Oct,3,1,trial_23,,1,0,,2270.215,3722.355,2692.165,"{""FishSmall"":2,""FishBig"":0,""CanSmall"":3,""CanBig"":0,""Seaweed"":1}","{""FishSmall"":2,""FishBig"":1,""CanSmall"":1,""CanBig"":0,""Seaweed"":2}",100,50,-1.666666667,5,3.333333333,10,8.975274679,9.574271078,1,2,6.666666667,0.598996399,1,-50,"{""FishSmall"":2,""FishBig"":0,""CanSmall"":1,""CanBig"":0,""Seaweed"":0}","{""FishSmall"":0,""FishBig"":2,""CanSmall"":1,""CanBig"":0,""Seaweed"":0}",-1.666666667,10,1,1227.9065,1,2,2,2,2,2,2,2,2,2,2,2,2,2,100,23,1,0,20
3652123,10,123,Female,2,12-Oct,3,0,trial_24,,0,1,,1490.52,1651.755,3762.685,"{""FishSmall"":1,""FishBig"":3,""CanSmall"":0,""CanBig"":0,""Seaweed"":2}","{""FishSmall"":1,""FishBig"":0,""CanSmall"":3,""CanBig"":1,""Seaweed"":1}",100,50,11.66666667,-6.666666667,6.666666667,-3.333333333,8.975274679,9.428090416,2,1,-18.33333333,0.452815737,-1,-50,"{""FishSmall"":1,""FishBig"":1,""CanSmall"":1,""CanBig"":0,""Seaweed"":0}","{""FishSmall"":1,""FishBig"":0,""CanSmall"":2,""CanBig"":0,""Seaweed"":0}",6.666666667,-6.666666667,1,1227.9065,1,2,2,2,2,2,2,2,2,2,2,2,2,2,100,24,1,20,0
3652123,10,123,Female,2,12-Oct,3,0,trial_25,,0,,,2717.675,2716.82,,"{""FishSmall"":2,""FishBig"":0,""CanSmall"":2,""CanBig"":0,""Seaweed"":2}","{""FishSmall"":1,""FishBig"":0,""CanSmall"":1,""CanBig"":1,""Seaweed"":3}",50,0,0,-3.333333333,3.333333333,-6.666666667,8.164965809,9.428090416,2,3,-3.333333333,1.263124607,1,-50,"{""FishSmall"":2,""FishBig"":0,""CanSmall"":1,""CanBig"":0,""Seaweed"":0}","{""FishSmall"":1,""FishBig"":0,""CanSmall"":1,""CanBig"":1,""Seaweed"":0}",3.333333333,-3.333333333,1,1227.9065,1,2,2,2,2,2,2,2,2,2,2,2,2,2,100,25,1,10,-20
3652123,10,123,Female,2,12-Oct,3,0,trial_26,,0,1,,1387.635,1660.525,6663.24,"{""FishSmall"":1,""FishBig"":4,""CanSmall"":0,""CanBig"":0,""Seaweed"":1}","{""FishSmall"":1,""FishBig"":0,""CanSmall"":2,""CanBig"":1,""Seaweed"":2}",50,100,15,-5,16.66666667,3.333333333,7.637626158,9.574271078,1,2,-20,1.936644919,1,50,"{""FishSmall"":1,""FishBig"":2,""CanSmall"":0,""CanBig"":0,""Seaweed"":0}","{""FishSmall"":2,""FishBig"":0,""CanSmall"":1,""CanBig"":0,""Seaweed"":0}",16.66666667,-5,1,1227.9065,1,2,2,2,2,2,2,2,2,2,2,2,2,2,100,26,1,20,0
3652123,10,123,Female,2,12-Oct,3,0,trial_27,,1,,,3514.54,2597.005,,"{""FishSmall"":2,""FishBig"":2,""CanSmall"":0,""CanBig"":0,""Seaweed"":2}","{""FishSmall"":1,""FishBig"":0,""CanSmall"":3,""CanBig"":1,""Seaweed"":1}",100,0,10,-6.666666667,-3.333333333,-3.333333333,8.164965809,9.428090416,2,1,-16.66666667,1.263124607,-1,-100,"{""FishSmall"":0,""FishBig"":1,""CanSmall"":1,""CanBig"":1,""Seaweed"":0}","{""FishSmall"":1,""FishBig"":0,""CanSmall"":2,""CanBig"":0,""Seaweed"":0}",-3.333333333,-6.666666667,1,1227.9065,1,2,2,2,2,2,2,2,2,2,2,2,2,2,100,27,1,0,0
3652123,10,123,Female,2,12-Oct,3,1,trial_28,,,0,,867.795,,2904.47,"{""FishSmall"":0,""FishBig"":0,""CanSmall"":4,""CanBig"":0,""Seaweed"":2}","{""FishSmall"":1,""FishBig"":1,""CanSmall"":1,""CanBig"":0,""Seaweed"":3}",0,100,-6.666666667,3.333333333,-3.333333333,10,4.714045208,9.428090416,2,3,10,4.714045208,1,100,"{""FishSmall"":1,""FishBig"":0,""CanSmall"":2,""CanBig"":0,""Seaweed"":0}","{""FishSmall"":0,""FishBig"":2,""CanSmall"":1,""CanBig"":0,""Seaweed"":0}",-6.666666667,10,1,1227.9065,1,2,2,2,2,2,2,2,2,2,2,2,2,2,100,28,1,0,20
3652123,10,123,Female,2,12-Oct,3,0,trial_29,,,,,4160.21,,,"{""FishSmall"":1,""FishBig"":2,""CanSmall"":0,""CanBig"":0,""Seaweed"":3}","{""FishSmall"":1,""FishBig"":0,""CanSmall"":3,""CanBig"":1,""Seaweed"":1}",0,50,8.333333333,-6.666666667,13.33333333,3.333333333,8.975274679,9.428090416,3,1,-15,0.452815737,-2,50,"{""FishSmall"":2,""FishBig"":1,""CanSmall"":0,""CanBig"":0,""Seaweed"":0}","{""FishSmall"":1,""FishBig"":1,""CanSmall"":0,""CanBig"":1,""Seaweed"":0}",13.33333333,-6.666666667,1,1227.9065,1,2,2,2,2,2,2,2,2,2,2,2,2,2,100,29,1,10,0
3652123,10,123,Female,2,12-Oct,3,0,trial_30,,0,0,,4238.2,2106.85,2237.28,"{""FishSmall"":2,""FishBig"":1,""CanSmall"":0,""CanBig"":0,""Seaweed"":3}","{""FishSmall"":2,""FishBig"":0,""CanSmall"":1,""CanBig"":0,""Seaweed"":3}",100,100,6.666666667,1.666666667,13.33333333,6.666666667,7.453559925,6.871842709,3,3,-5,-0.581717216,0,0,"{""FishSmall"":2,""FishBig"":1,""CanSmall"":0,""CanBig"":0,""Seaweed"":0}","{""FishSmall"":1,""FishBig"":1,""CanSmall"":1,""CanBig"":0,""Seaweed"":0}",13.33333333,1.666666667,1,1227.9065,1,2,2,2,2,2,2,2,2,2,2,2,2,2,100,30,1,10,-10
3652062,5,68,Male,1,5-Apr,0,1,trial_1,,,,,17980.16,,,"{""FishSmall"":1,""FishBig"":0,""CanSmall"":2,""CanBig"":1,""Seaweed"":2}","{""FishSmall"":2,""FishBig"":2,""CanSmall"":0,""CanBig"":0,""Seaweed"":2}",0,0,-5,10,-3.333333333,-3.333333333,9.574271078,8.164965809,2,2,15,-1.409305268,0,0,"{""FishSmall"":0,""FishBig"":1,""CanSmall"":1,""CanBig"":1,""Seaweed"":0}","{""FishSmall"":1,""FishBig"":0,""CanSmall"":2,""CanBig"":0,""Seaweed"":0}",-5,-3.333333333,0.8,4918.8125,0.769230769,2,1,2,2,2,1,1,1,2,1,1,2,2,100,1,0.321428571,20,0
3652062,5,68,Male,1,5-Apr,0,0,trial_2,,,,,38373.23,,,"{""FishSmall"":2,""FishBig"":1,""CanSmall"":0,""CanBig"":0,""Seaweed"":3}","{""FishSmall"":0,""FishBig"":0,""CanSmall"":0,""CanBig"":6,""Seaweed"":0}",50,50,6.666666667,-20,16.66666667,-20,7.453559925,0,3,0,-26.66666667,-7.453559925,-3,0,"{""FishSmall"":1,""FishBig"":2,""CanSmall"":0,""CanBig"":0,""Seaweed"":0}","{""FishSmall"":0,""FishBig"":0,""CanSmall"":0,""CanBig"":3,""Seaweed"":0}",16.66666667,-20,0.8,4918.8125,0.769230769,2,1,2,2,2,1,1,1,2,1,1,2,2,100,2,0.321428571,20,-20
3652062,5,68,Male,1,5-Apr,0,1,trial_3,,0,0,,22311.75,9889.87,16543.975,"{""FishSmall"":4,""FishBig"":0,""CanSmall"":1,""CanBig"":0,""Seaweed"":1}","{""FishSmall"":1,""FishBig"":0,""CanSmall"":3,""CanBig"":0,""Seaweed"":2}",100,100,5,-3.333333333,3.333333333,-6.666666667,7.637626158,7.453559925,1,2,-8.333333333,-0.184066233,1,0,"{""FishSmall"":2,""FishBig"":0,""CanSmall"":1,""CanBig"":0,""Seaweed"":0}","{""FishSmall"":1,""FishBig"":0,""CanSmall"":1,""CanBig"":1,""Seaweed"":0}",5,-6.666666667,0.8,4918.8125,0.769230769,2,1,2,2,2,1,1,1,2,1,1,2,2,100,3,0.321428571,10,-20
3652062,5,68,Male,1,5-Apr,0,0,trial_4,,,,,9618.31,,,"{""FishSmall"":1,""FishBig"":0,""CanSmall"":4,""CanBig"":0,""Seaweed"":1}","{""FishSmall"":2,""FishBig"":1,""CanSmall"":1,""CanBig"":0,""Seaweed"":2}",50,50,-5,5,-3.333333333,-10,7.637626158,9.574271078,1,2,10,1.936644919,1,0,"{""FishSmall"":1,""FishBig"":0,""CanSmall"":2,""CanBig"":0,""Seaweed"":0}","{""FishSmall"":0,""FishBig"":0,""CanSmall"":3,""CanBig"":0,""Seaweed"":0}",-3.333333333,5,0.8,4918.8125,0.769230769,2,1,2,2,2,1,1,1,2,1,1,2,2,100,4,0.321428571,-10,0
3652062,5,68,Male,1,5-Apr,0,1,trial_5,,,0,,14098.085,,22176.96,"{""FishSmall"":2,""FishBig"":0,""CanSmall"":3,""CanBig"":0,""Seaweed"":1}","{""FishSmall"":4,""FishBig"":0,""CanSmall"":2,""CanBig"":0,""Seaweed"":0}",50,50,-1.666666667,3.333333333,-13.33333333,3.333333333,8.975274679,9.428090416,1,0,5,0.452815737,-1,0,"{""FishSmall"":0,""FishBig"":0,""CanSmall"":2,""CanBig"":1,""Seaweed"":0}","{""FishSmall"":2,""FishBig"":0,""CanSmall"":1,""CanBig"":0,""Seaweed"":0}",-1.666666667,3.333333333,0.8,4918.8125,0.769230769,2,1,2,2,2,1,1,1,2,1,1,2,2,100,5,0.321428571,0,-10
3652062,5,68,Male,1,5-Apr,0,0,trial_6,,0,0,,11238.355,16544.715,4530.555,"{""FishSmall"":0,""FishBig"":0,""CanSmall"":3,""CanBig"":1,""Seaweed"":2}","{""FishSmall"":1,""FishBig"":0,""CanSmall"":1,""CanBig"":1,""Seaweed"":3}",100,100,-8.333333333,-3.333333333,-10,-3.333333333,6.871842709,9.428090416,2,3,5,2.556247706,1,0,"{""FishSmall"":0,""FishBig"":0,""CanSmall"":3,""CanBig"":0,""Seaweed"":0}","{""FishSmall"":1,""FishBig"":0,""CanSmall"":2,""CanBig"":0,""Seaweed"":0}",-10,-3.333333333,0.8,4918.8125,0.769230769,2,1,2,2,2,1,1,1,2,1,1,2,2,100,6,0.321428571,-10,10
3652062,5,68,Male,1,5-Apr,0,0,trial_7,,,0,,48736.22,,61521.13,"{""FishSmall"":3,""FishBig"":1,""CanSmall"":1,""CanBig"":0,""Seaweed"":1}","{""FishSmall"":1,""FishBig"":0,""CanSmall"":1,""CanBig"":1,""Seaweed"":3}",50,50,6.666666667,-3.333333333,0,-6.666666667,9.428090416,9.428090416,1,3,-10,0,2,0,"{""FishSmall"":2,""FishBig"":0,""CanSmall"":0,""CanBig"":1,""Seaweed"":0}","{""FishSmall"":1,""FishBig"":0,""CanSmall"":1,""CanBig"":1,""Seaweed"":0}",0,-3.333333333,0.8,4918.8125,0.769230769,2,1,2,2,2,1,1,1,2,1,1,2,2,100,7,0.321428571,-20,-20
3652062,5,68,Male,1,5-Apr,0,0,trial_8,,0,0,,35468.335,12585.59,12645.615,"{""FishSmall"":0,""FishBig"":0,""CanSmall"":2,""CanBig"":2,""Seaweed"":2}","{""FishSmall"":1,""FishBig"":0,""CanSmall"":3,""CanBig"":1,""Seaweed"":1}",50,100,-10,-6.666666667,-3.333333333,-6.666666667,8.164965809,9.428090416,2,1,3.333333333,1.263124607,-1,50,"{""FishSmall"":0,""FishBig"":1,""CanSmall"":1,""CanBig"":1,""Seaweed"":0}","{""FishSmall"":1,""FishBig"":0,""CanSmall"":1,""CanBig"":1,""Seaweed"":0}",-3.333333333,-6.666666667,0.8,4918.8125,0.769230769,2,1,2,2,2,1,1,1,2,1,1,2,2,100,8,0.321428571,-20,10
3652062,5,68,Male,1,5-Apr,0,1,trial_9,,0,0,,11874.185,21106.815,17385,"{""FishSmall"":0,""FishBig"":0,""CanSmall"":1,""CanBig"":2,""Seaweed"":3}","{""FishSmall"":3,""FishBig"":3,""CanSmall"":0,""CanBig"":0,""Seaweed"":0}",50,50,-8.333333333,15,0,10,8.975274679,5,3,0,23.33333333,-3.975274679,-3,0,"{""FishSmall"":0,""FishBig"":1,""CanSmall"":2,""CanBig"":0,""Seaweed"":0}","{""FishSmall"":3,""FishBig"":0,""CanSmall"":0,""CanBig"":0,""Seaweed"":0}",-8.333333333,10,0.8,4918.8125,0.769230769,2,1,2,2,2,1,1,1,2,1,1,2,2,100,9,0.321428571,-10,10
3652062,5,68,Male,1,5-Apr,0,1,trial_10,,0,0,,12907.95,18078.19,16127.445,"{""FishSmall"":2,""FishBig"":0,""CanSmall"":1,""CanBig"":0,""Seaweed"":3}","{""FishSmall"":2,""FishBig"":2,""CanSmall"":0,""CanBig"":0,""Seaweed"":2}",50,100,1.666666667,10,3.333333333,16.66666667,6.871842709,8.164965809,3,2,8.333333333,1.2931231,-1,50,"{""FishSmall"":2,""FishBig"":0,""CanSmall"":1,""CanBig"":0,""Seaweed"":0}","{""FishSmall"":1,""FishBig"":2,""CanSmall"":0,""CanBig"":0,""Seaweed"":0}",1.666666667,16.66666667,0.8,4918.8125,0.769230769,2,1,2,2,2,1,1,1,2,1,1,2,2,100,10,0.321428571,10,20
3652062,5,68,Male,1,5-Apr,0,,catch_1,0,,,9679.7,,,,"{""FishSmall"":4,""FishBig"":2,""CanSmall"":0,""CanBig"":0,""Seaweed"":0}","{""FishSmall"":4,""FishBig"":2,""CanSmall"":0,""CanBig"":0,""Seaweed"":0}",0,0,,,,,,,,,,,,,"{""FishSmall"":2,""FishBig"":1,""CanSmall"":0,""CanBig"":0,""Seaweed"":0}","{""FishSmall"":2,""FishBig"":1,""CanSmall"":0,""CanBig"":0,""Seaweed"":0}",,,0.8,4918.8125,0.769230769,2,1,2,2,2,1,1,1,2,1,1,2,2,100,,0.321428571,,
3652062,5,68,Male,1,5-Apr,0,1,trial_11,,,,,7116.875,,,"{""FishSmall"":2,""FishBig"":1,""CanSmall"":1,""CanBig"":0,""Seaweed"":2}","{""FishSmall"":4,""FishBig"":2,""CanSmall"":0,""CanBig"":0,""Seaweed"":0}",0,50,5,13.33333333,6.666666667,13.33333333,9.574271078,4.714045208,2,0,8.333333333,-4.86022587,-2,50,"{""FishSmall"":1,""FishBig"":1,""CanSmall"":1,""CanBig"":0,""Seaweed"":0}","{""FishSmall"":2,""FishBig"":1,""CanSmall"":0,""CanBig"":0,""Seaweed"":0}",5,13.33333333,0.8,4918.8125,0.769230769,2,1,2,2,2,1,1,1,2,1,1,2,2,100,11,0.321428571,-10,10
3652062,5,68,Male,1,5-Apr,0,1,trial_12,,,,,7744.315,,,"{""FishSmall"":4,""FishBig"":0,""CanSmall"":1,""CanBig"":0,""Seaweed"":1}","{""FishSmall"":1,""FishBig"":0,""CanSmall"":1,""CanBig"":1,""Seaweed"":3}",50,50,5,-3.333333333,10,10,7.637626158,9.428090416,1,3,-8.333333333,1.790464258,2,0,"{""FishSmall"":3,""FishBig"":0,""CanSmall"":0,""CanBig"":0,""Seaweed"":0}","{""FishSmall"":0,""FishBig"":2,""CanSmall"":1,""CanBig"":0,""Seaweed"":0}",5,10,0.8,4918.8125,0.769230769,2,1,2,2,2,1,1,1,2,1,1,2,2,100,12,0.321428571,10,0
3652062,5,68,Male,1,5-Apr,0,1,trial_13,,0,,,9771.81,6032.435,,"{""FishSmall"":1,""FishBig"":2,""CanSmall"":0,""CanBig"":0,""Seaweed"":3}","{""FishSmall"":3,""FishBig"":0,""CanSmall"":0,""CanBig"":0,""Seaweed"":3}",100,50,8.333333333,5,3.333333333,10,8.975274679,5,3,3,-3.333333333,-3.975274679,0,-50,"{""FishSmall"":1,""FishBig"":1,""CanSmall"":0,""CanBig"":1,""Seaweed"":0}","{""FishSmall"":3,""FishBig"":0,""CanSmall"":0,""CanBig"":0,""Seaweed"":0}",8.333333333,10,0.8,4918.8125,0.769230769,2,1,2,2,2,1,1,1,2,1,1,2,2,100,13,0.321428571,20,0
3652062,5,68,Male,1,5-Apr,0,1,trial_14,,,,,2596.565,,,"{""FishSmall"":1,""FishBig"":0,""CanSmall"":4,""CanBig"":0,""Seaweed"":1}","{""FishSmall"":2,""FishBig"":1,""CanSmall"":1,""CanBig"":0,""Seaweed"":2}",0,0,-5,5,-10,3.333333333,7.637626158,9.574271078,1,2,10,1.936644919,1,0,"{""FishSmall"":0,""FishBig"":0,""CanSmall"":3,""CanBig"":0,""Seaweed"":0}","{""FishSmall"":2,""FishBig"":0,""CanSmall"":1,""CanBig"":0,""Seaweed"":0}",-5,3.333333333,0.8,4918.8125,0.769230769,2,1,2,2,2,1,1,1,2,1,1,2,2,100,14,0.321428571,0,10
3652062,5,68,Male,1,5-Apr,0,1,trial_15,,0,,,3785.625,11412.79,,"{""FishSmall"":3,""FishBig"":0,""CanSmall"":2,""CanBig"":0,""Seaweed"":1}","{""FishSmall"":0,""FishBig"":0,""CanSmall"":2,""CanBig"":3,""Seaweed"":1}",100,0,1.666666667,-13.33333333,3.333333333,-6.666666667,8.975274679,7.453559925,1,1,-15,-1.521714754,0,-100,"{""FishSmall"":2,""FishBig"":0,""CanSmall"":1,""CanBig"":0,""Seaweed"":0}","{""FishSmall"":1,""FishBig"":0,""CanSmall"":1,""CanBig"":1,""Seaweed"":0}",1.666666667,-6.666666667,0.8,4918.8125,0.769230769,2,1,2,2,2,1,1,1,2,1,1,2,2,100,15,0.321428571,10,0
3652062,5,68,Male,1,5-Apr,0,1,trial_16,,,0,,10749.535,,9408.235,"{""FishSmall"":0,""FishBig"":0,""CanSmall"":4,""CanBig"":1,""Seaweed"":1}","{""FishSmall"":1,""FishBig"":0,""CanSmall"":2,""CanBig"":1,""Seaweed"":2}",50,100,-10,-5,0,-13.33333333,5.773502692,9.574271078,1,2,5,3.800768386,1,50,"{""FishSmall"":0,""FishBig"":1,""CanSmall"":2,""CanBig"":0,""Seaweed"":0}","{""FishSmall"":0,""FishBig"":0,""CanSmall"":2,""CanBig"":1,""Seaweed"":0}",-10,-13.33333333,0.8,4918.8125,0.769230769,2,1,2,2,2,1,1,1,2,1,1,2,2,100,16,0.321428571,20,-10
3652062,5,68,Male,1,5-Apr,0,1,trial_17,,0,,,12162.355,7658.15,,"{""FishSmall"":0,""FishBig"":0,""CanSmall"":3,""CanBig"":1,""Seaweed"":2}","{""FishSmall"":1,""FishBig"":1,""CanSmall"":1,""CanBig"":0,""Seaweed"":3}",50,0,-8.333333333,3.333333333,-10,3.333333333,6.871842709,9.428090416,2,3,11.66666667,2.556247706,1,-50,"{""FishSmall"":0,""FishBig"":0,""CanSmall"":3,""CanBig"":0,""Seaweed"":0}","{""FishSmall"":2,""FishBig"":0,""CanSmall"":1,""CanBig"":0,""Seaweed"":0}",-8.333333333,3.333333333,0.8,4918.8125,0.769230769,2,1,2,2,2,1,1,1,2,1,1,2,2,100,17,0.321428571,-10,-10
3652062,5,68,Male,1,5-Apr,0,1,trial_18,,0,,,9962.73,8242.735,,"{""FishSmall"":1,""FishBig"":0,""CanSmall"":1,""CanBig"":1,""Seaweed"":3}","{""FishSmall"":2,""FishBig"":0,""CanSmall"":3,""CanBig"":0,""Seaweed"":1}",100,0,-3.333333333,-1.666666667,-6.666666667,6.666666667,9.428090416,8.975274679,3,1,1.666666667,-0.452815737,-2,-100,"{""FishSmall"":1,""FishBig"":0,""CanSmall"":1,""CanBig"":1,""Seaweed"":0}","{""FishSmall"":1,""FishBig"":1,""CanSmall"":1,""CanBig"":0,""Seaweed"":0}",-3.333333333,6.666666667,0.8,4918.8125,0.769230769,2,1,2,2,2,1,1,1,2,1,1,2,2,100,18,0.321428571,10,10
3652062,5,68,Male,1,5-Apr,0,0,trial_19,,,,,2878.95,,,"{""FishSmall"":1,""FishBig"":0,""CanSmall"":2,""CanBig"":0,""Seaweed"":3}","{""FishSmall"":4,""FishBig"":1,""CanSmall"":1,""CanBig"":0,""Seaweed"":0}",0,0,-1.666666667,8.333333333,-3.333333333,3.333333333,6.871842709,8.975274679,3,0,10,2.103431969,-3,0,"{""FishSmall"":1,""FishBig"":0,""CanSmall"":2,""CanBig"":0,""Seaweed"":0}","{""FishSmall"":2,""FishBig"":0,""CanSmall"":1,""CanBig"":0,""Seaweed"":0}",-3.333333333,8.333333333,0.8,4918.8125,0.769230769,2,1,2,2,2,1,1,1,2,1,1,2,2,100,19,0.321428571,10,10
3652062,5,68,Male,1,5-Apr,0,0,trial_20,,,0,,11562.92,,4407.75,"{""FishSmall"":2,""FishBig"":0,""CanSmall"":2,""CanBig"":0,""Seaweed"":2}","{""FishSmall"":0,""FishBig"":0,""CanSmall"":2,""CanBig"":3,""Seaweed"":1}",0,100,0,-13.33333333,13.33333333,-6.666666667,8.164965809,7.453559925,2,1,-13.33333333,-0.711405884,-1,100,"{""FishSmall"":2,""FishBig"":1,""CanSmall"":0,""CanBig"":0,""Seaweed"":0}","{""FishSmall"":1,""FishBig"":0,""CanSmall"":1,""CanBig"":1,""Seaweed"":0}",13.33333333,-13.33333333,0.8,4918.8125,0.769230769,2,1,2,2,2,1,1,1,2,1,1,2,2,100,20,0.321428571,10,-10
3652062,5,68,Male,1,5-Apr,0,,catch_2,1,,,8003.5,,,,"{""FishSmall"":0,""FishBig"":0,""CanSmall"":3,""CanBig"":3,""Seaweed"":0}","{""FishSmall"":0,""FishBig"":0,""CanSmall"":3,""CanBig"":3,""Seaweed"":0}",0,0,,,,,,,,,,,,,"{""FishSmall"":0,""FishBig"":0,""CanSmall"":1,""CanBig"":2,""Seaweed"":0}","{""FishSmall"":0,""FishBig"":0,""CanSmall"":2,""CanBig"":1,""Seaweed"":0}",,,0.8,4918.8125,0.769230769,2,1,2,2,2,1,1,1,2,1,1,2,2,100,,0.321428571,,
3652062,5,68,Male,1,5-Apr,0,0,trial_21,,0,0,,15134.125,5243.91,4836.09,"{""FishSmall"":1,""FishBig"":0,""CanSmall"":2,""CanBig"":1,""Seaweed"":2}","{""FishSmall"":1,""FishBig"":0,""CanSmall"":1,""CanBig"":1,""Seaweed"":3}",50,100,-5,-3.333333333,-20,6.666666667,9.574271078,9.428090416,2,3,1.666666667,-0.146180662,1,50,"{""FishSmall"":0,""FishBig"":0,""CanSmall"":0,""CanBig"":3,""Seaweed"":0}","{""FishSmall"":1,""FishBig"":1,""CanSmall"":1,""CanBig"":0,""Seaweed"":0}",-20,-3.333333333,0.8,4918.8125,0.769230769,2,1,2,2,2,1,1,1,2,1,1,2,2,100,21,0.321428571,-20,10
3652062,5,68,Male,1,5-Apr,0,0,trial_22,,,0,,31096.24,,16728.475,"{""FishSmall"":4,""FishBig"":1,""CanSmall"":0,""CanBig"":0,""Seaweed"":1}","{""FishSmall"":0,""FishBig"":0,""CanSmall"":4,""CanBig"":0,""Seaweed"":2}",0,100,10,-6.666666667,13.33333333,-10,5.773502692,4.714045208,1,2,-16.66666667,-1.059457484,1,100,"{""FishSmall"":2,""FishBig"":1,""CanSmall"":0,""CanBig"":0,""Seaweed"":0}","{""FishSmall"":0,""FishBig"":0,""CanSmall"":3,""CanBig"":0,""Seaweed"":0}",13.33333333,-6.666666667,0.8,4918.8125,0.769230769,2,1,2,2,2,1,1,1,2,1,1,2,2,100,22,0.321428571,0,-10
3652062,5,68,Male,1,5-Apr,0,0,trial_23,,,,,8571.07,,,"{""FishSmall"":2,""FishBig"":0,""CanSmall"":1,""CanBig"":0,""Seaweed"":3}","{""FishSmall"":1,""FishBig"":4,""CanSmall"":0,""CanBig"":0,""Seaweed"":1}",0,0,1.666666667,15,3.333333333,10,6.871842709,7.637626158,3,1,13.33333333,0.765783449,-2,0,"{""FishSmall"":2,""FishBig"":0,""CanSmall"":1,""CanBig"":0,""Seaweed"":0}","{""FishSmall"":0,""FishBig"":2,""CanSmall"":1,""CanBig"":0,""Seaweed"":0}",3.333333333,15,0.8,4918.8125,0.769230769,2,1,2,2,2,1,1,1,2,1,1,2,2,100,23,0.321428571,0,20
3652062,5,68,Male,1,5-Apr,0,1,trial_24,,0,,,29988.9,8024.89,,"{""FishSmall"":0,""FishBig"":0,""CanSmall"":3,""CanBig"":2,""Seaweed"":1}","{""FishSmall"":3,""FishBig"":0,""CanSmall"":2,""CanBig"":0,""Seaweed"":1}",100,0,-11.66666667,1.666666667,-13.33333333,-6.666666667,6.871842709,8.975274679,1,1,13.33333333,2.103431969,0,-100,"{""FishSmall"":0,""FishBig"":0,""CanSmall"":2,""CanBig"":1,""Seaweed"":0}","{""FishSmall"":1,""FishBig"":0,""CanSmall"":1,""CanBig"":1,""Seaweed"":0}",-11.66666667,-6.666666667,0.8,4918.8125,0.769230769,2,1,2,2,2,1,1,1,2,1,1,2,2,100,24,0.321428571,-10,-20
3652062,5,68,Male,1,5-Apr,0,0,trial_25,,0,,,2752.94,10322.54,,"{""FishSmall"":3,""FishBig"":0,""CanSmall"":2,""CanBig"":0,""Seaweed"":1}","{""FishSmall"":3,""FishBig"":1,""CanSmall"":1,""CanBig"":0,""Seaweed"":1}",100,50,1.666666667,6.666666667,3.333333333,16.66666667,8.975274679,9.428090416,1,1,5,0.452815737,0,-50,"{""FishSmall"":2,""FishBig"":0,""CanSmall"":1,""CanBig"":0,""Seaweed"":0}","{""FishSmall"":1,""FishBig"":2,""CanSmall"":0,""CanBig"":0,""Seaweed"":0}",3.333333333,6.666666667,0.8,4918.8125,0.769230769,2,1,2,2,2,1,1,1,2,1,1,2,2,100,25,0.321428571,-10,0
3652062,5,68,Male,1,5-Apr,0,0,trial_26,,0,,,3118.26,11897.375,,"{""FishSmall"":4,""FishBig"":0,""CanSmall"":0,""CanBig"":0,""Seaweed"":2}","{""FishSmall"":2,""FishBig"":0,""CanSmall"":2,""CanBig"":0,""Seaweed"":2}",100,0,6.666666667,0,10,-13.33333333,4.714045208,8.164965809,2,2,-6.666666667,3.450920601,0,-100,"{""FishSmall"":3,""FishBig"":0,""CanSmall"":0,""CanBig"":0,""Seaweed"":0}","{""FishSmall"":0,""FishBig"":0,""CanSmall"":2,""CanBig"":1,""Seaweed"":0}",10,0,0.8,4918.8125,0.769230769,2,1,2,2,2,1,1,1,2,1,1,2,2,100,26,0.321428571,10,-10
3652062,5,68,Male,1,5-Apr,0,0,trial_27,,,0,,13107.45,,4618.98,"{""FishSmall"":0,""FishBig"":0,""CanSmall"":2,""CanBig"":2,""Seaweed"":2}","{""FishSmall"":0,""FishBig"":0,""CanSmall"":1,""CanBig"":2,""Seaweed"":3}",50,100,-10,-8.333333333,-10,-13.33333333,8.164965809,8.975274679,2,3,1.666666667,0.810308869,1,50,"{""FishSmall"":1,""FishBig"":0,""CanSmall"":0,""CanBig"":2,""Seaweed"":0}","{""FishSmall"":0,""FishBig"":0,""CanSmall"":2,""CanBig"":1,""Seaweed"":0}",-10,-8.333333333,0.8,4918.8125,0.769230769,2,1,2,2,2,1,1,1,2,1,1,2,2,100,27,0.321428571,-20,-20
3652062,5,68,Male,1,5-Apr,0,0,trial_28,,,0,,8223.165,,15155,"{""FishSmall"":2,""FishBig"":1,""CanSmall"":1,""CanBig"":0,""Seaweed"":2}","{""FishSmall"":1,""FishBig"":0,""CanSmall"":3,""CanBig"":0,""Seaweed"":2}",0,100,5,-3.333333333,13.33333333,0,9.574271078,7.453559925,2,2,-8.333333333,-2.120711153,0,100,"{""FishSmall"":2,""FishBig"":1,""CanSmall"":0,""CanBig"":0,""Seaweed"":0}","{""FishSmall"":0,""FishBig"":1,""CanSmall"":2,""CanBig"":0,""Seaweed"":0}",13.33333333,-3.333333333,0.8,4918.8125,0.769230769,2,1,2,2,2,1,1,1,2,1,1,2,2,100,28,0.321428571,10,-10
3652062,5,68,Male,1,5-Apr,0,1,trial_29,,,0,,25373.19,,7134.32,"{""FishSmall"":3,""FishBig"":1,""CanSmall"":1,""CanBig"":0,""Seaweed"":1}","{""FishSmall"":1,""FishBig"":1,""CanSmall"":1,""CanBig"":0,""Seaweed"":3}",0,100,6.666666667,3.333333333,13.33333333,-10,9.428090416,9.428090416,1,3,-3.333333333,0,2,100,"{""FishSmall"":2,""FishBig"":1,""CanSmall"":0,""CanBig"":0,""Seaweed"":0}","{""FishSmall"":1,""FishBig"":0,""CanSmall"":0,""CanBig"":2,""Seaweed"":0}",6.666666667,-10,0.8,4918.8125,0.769230769,2,1,2,2,2,1,1,1,2,1,1,2,2,100,29,0.321428571,0,-20
3652062,5,68,Male,1,5-Apr,0,0,trial_30,,0,,,24852.625,32400.93,,"{""FishSmall"":0,""FishBig"":0,""CanSmall"":2,""CanBig"":2,""Seaweed"":2}","{""FishSmall"":4,""FishBig"":1,""CanSmall"":0,""CanBig"":0,""Seaweed"":1}",100,50,-10,10,-3.333333333,10,8.164965809,5.773502692,2,1,20,-2.391463117,-1,-50,"{""FishSmall"":1,""FishBig"":0,""CanSmall"":2,""CanBig"":0,""Seaweed"":0}","{""FishSmall"":3,""FishBig"":0,""CanSmall"":0,""CanBig"":0,""Seaweed"":0}",-3.333333333,10,0.8,4918.8125,0.769230769,2,1,2,2,2,1,1,1,2,1,1,2,2,100,30,0.321428571,10,0
3658574,4,48,Female,2,5-Apr,0,0,trial_1,,0,,,1211,1274,,"{""FishSmall"":0,""FishBig"":0,""CanSmall"":5,""CanBig"":0,""Seaweed"":1}","{""FishSmall"":2,""FishBig"":1,""CanSmall"":0,""CanBig"":0,""Seaweed"":3}",100,50,-8.333333333,6.666666667,-3.333333333,3.333333333,3.726779962,7.453559925,1,3,15,3.726779962,2,-50,"{""FishSmall"":1,""FishBig"":0,""CanSmall"":2,""CanBig"":0,""Seaweed"":0}","{""FishSmall"":1,""FishBig"":1,""CanSmall"":0,""CanBig"":1,""Seaweed"":0}",-3.333333333,6.666666667,1,565.7,0.923076923,2,2,2,2,2,2,1,2,2,2,1,2,2,100,1,0.806451613,10,0
3658574,4,48,Female,2,5-Apr,0,0,trial_2,,1,,,853,2295,,"{""FishSmall"":1,""FishBig"":0,""CanSmall"":2,""CanBig"":1,""Seaweed"":2}","{""FishSmall"":1,""FishBig"":3,""CanSmall"":0,""CanBig"":0,""Seaweed"":2}",100,0,-5,11.66666667,6.666666667,6.666666667,9.574271078,8.975274679,2,2,16.66666667,-0.598996399,0,-100,"{""FishSmall"":1,""FishBig"":1,""CanSmall"":1,""CanBig"":0,""Seaweed"":0}","{""FishSmall"":0,""FishBig"":2,""CanSmall"":0,""CanBig"":1,""Seaweed"":0}",6.666666667,11.66666667,1,565.7,0.923076923,2,2,2,2,2,2,1,2,2,2,1,2,2,100,2,0.806451613,0,20
3658574,4,48,Female,2,5-Apr,0,0,trial_3,,,0,,776,969,652,"{""FishSmall"":2,""FishBig"":0,""CanSmall"":4,""CanBig"":0,""Seaweed"":0}","{""FishSmall"":0,""FishBig"":0,""CanSmall"":2,""CanBig"":4,""Seaweed"":0}",0,50,-3.333333333,-16.66666667,3.333333333,-16.66666667,9.428090416,4.714045208,0,0,-13.33333333,-4.714045208,0,50,"{""FishSmall"":2,""FishBig"":0,""CanSmall"":1,""CanBig"":0,""Seaweed"":0}","{""FishSmall"":0,""FishBig"":0,""CanSmall"":1,""CanBig"":2,""Seaweed"":0}",3.333333333,-16.66666667,1,565.7,0.923076923,2,2,2,2,2,2,1,2,2,2,1,2,2,100,3,0.806451613,0,-20
3658574,4,48,Female,2,5-Apr,0,0,trial_4,,,1,,1330,,1734,"{""FishSmall"":0,""FishBig"":0,""CanSmall"":3,""CanBig"":3,""Seaweed"":0}","{""FishSmall"":0,""FishBig"":0,""CanSmall"":1,""CanBig"":2,""Seaweed"":3}",0,50,-15,-8.333333333,-16.66666667,-20,5,8.975274679,0,3,6.666666667,3.975274679,3,50,"{""FishSmall"":0,""FishBig"":0,""CanSmall"":1,""CanBig"":2,""Seaweed"":0}","{""FishSmall"":0,""FishBig"":0,""CanSmall"":0,""CanBig"":3,""Seaweed"":0}",-16.66666667,-8.333333333,1,565.7,0.923076923,2,2,2,2,2,2,1,2,2,2,1,2,2,100,4,0.806451613,-20,0
3658574,4,48,Female,2,5-Apr,0,1,trial_5,,0,0,,863,1790,895,"{""FishSmall"":2,""FishBig"":3,""CanSmall"":0,""CanBig"":0,""Seaweed"":1}","{""FishSmall"":0,""FishBig"":0,""CanSmall"":3,""CanBig"":0,""Seaweed"":3}",50,100,13.33333333,-5,10,0,7.453559925,5,1,3,-18.33333333,-2.453559925,2,50,"{""FishSmall"":0,""FishBig"":2,""CanSmall"":1,""CanBig"":0,""Seaweed"":0}","{""FishSmall"":0,""FishBig"":1,""CanSmall"":2,""CanBig"":0,""Seaweed"":0}",13.33333333,0,1,565.7,0.923076923,2,2,2,2,2,2,1,2,2,2,1,2,2,100,5,0.806451613,-10,20
3658574,4,48,Female,2,5-Apr,0,1,trial_6,,,0,,1495,1840,1403,"{""FishSmall"":2,""FishBig"":0,""CanSmall"":3,""CanBig"":0,""Seaweed"":1}","{""FishSmall"":1,""FishBig"":0,""CanSmall"":2,""CanBig"":1,""Seaweed"":2}",0,100,-1.666666667,-5,-13.33333333,-3.333333333,8.975274679,9.574271078,1,2,-3.333333333,0.598996399,1,100,"{""FishSmall"":0,""FishBig"":0,""CanSmall"":2,""CanBig"":1,""Seaweed"":0}","{""FishSmall"":1,""FishBig"":0,""CanSmall"":2,""CanBig"":0,""Seaweed"":0}",-1.666666667,-3.333333333,1,565.7,0.923076923,2,2,2,2,2,2,1,2,2,2,1,2,2,100,6,0.806451613,0,-10
3658574,4,48,Female,2,5-Apr,0,1,trial_7,,,,,1407,,,"{""FishSmall"":0,""FishBig"":0,""CanSmall"":3,""CanBig"":3,""Seaweed"":0}","{""FishSmall"":1,""FishBig"":0,""CanSmall"":2,""CanBig"":1,""Seaweed"":2}",0,0,-15,-5,-13.33333333,-16.66666667,5,9.574271078,0,2,10,4.574271078,2,0,"{""FishSmall"":0,""FishBig"":0,""CanSmall"":2,""CanBig"":1,""Seaweed"":0}","{""FishSmall"":0,""FishBig"":0,""CanSmall"":1,""CanBig"":2,""Seaweed"":0}",-15,-16.66666667,1,565.7,0.923076923,2,2,2,2,2,2,1,2,2,2,1,2,2,100,7,0.806451613,-10,-10
3658574,4,48,Female,2,5-Apr,0,0,trial_8,,0,,,2795,1658,,"{""FishSmall"":2,""FishBig"":1,""CanSmall"":0,""CanBig"":0,""Seaweed"":3}","{""FishSmall"":0,""FishBig"":0,""CanSmall"":2,""CanBig"":2,""Seaweed"":2}",100,50,6.666666667,-10,3.333333333,-6.666666667,7.453559925,8.164965809,3,2,-16.66666667,0.711405884,-1,-50,"{""FishSmall"":1,""FishBig"":1,""CanSmall"":0,""CanBig"":1,""Seaweed"":0}","{""FishSmall"":1,""FishBig"":0,""CanSmall"":1,""CanBig"":1,""Seaweed"":0}",3.333333333,-10,1,565.7,0.923076923,2,2,2,2,2,2,1,2,2,2,1,2,2,100,8,0.806451613,10,0
3658574,4,48,Female,2,5-Apr,0,0,trial_9,,0,1,,1431,783,3932,"{""FishSmall"":2,""FishBig"":3,""CanSmall"":0,""CanBig"":0,""Seaweed"":1}","{""FishSmall"":1,""FishBig"":0,""CanSmall"":2,""CanBig"":1,""Seaweed"":2}",100,100,13.33333333,-5,13.33333333,-6.666666667,7.453559925,9.574271078,1,2,-18.33333333,2.120711153,1,0,"{""FishSmall"":2,""FishBig"":1,""CanSmall"":0,""CanBig"":0,""Seaweed"":0}","{""FishSmall"":1,""FishBig"":0,""CanSmall"":1,""CanBig"":1,""Seaweed"":0}",13.33333333,-5,1,565.7,0.923076923,2,2,2,2,2,2,1,2,2,2,1,2,2,100,9,0.806451613,10,0
3658574,4,48,Female,2,5-Apr,0,0,trial_10,,0,,,1053,1246,,"{""FishSmall"":1,""FishBig"":1,""CanSmall"":1,""CanBig"":0,""Seaweed"":3}","{""FishSmall"":1,""FishBig"":0,""CanSmall"":3,""CanBig"":0,""Seaweed"":2}",100,0,3.333333333,-3.333333333,6.666666667,-6.666666667,9.428090416,7.453559925,3,2,-6.666666667,-1.974530491,-1,-100,"{""FishSmall"":1,""FishBig"":1,""CanSmall"":1,""CanBig"":0,""Seaweed"":0}","{""FishSmall"":1,""FishBig"":0,""CanSmall"":1,""CanBig"":1,""Seaweed"":0}",6.666666667,-3.333333333,1,565.7,0.923076923,2,2,2,2,2,2,1,2,2,2,1,2,2,100,10,0.806451613,10,0
3658574,4,48,Female,2,5-Apr,0,,catch_1,0,,,1636,,,,"{""FishSmall"":4,""FishBig"":2,""CanSmall"":0,""CanBig"":0,""Seaweed"":0}","{""FishSmall"":4,""FishBig"":2,""CanSmall"":0,""CanBig"":0,""Seaweed"":0}",0,0,,,,,,,,,,,,,"{""FishSmall"":2,""FishBig"":1,""CanSmall"":0,""CanBig"":0,""Seaweed"":0}","{""FishSmall"":2,""FishBig"":1,""CanSmall"":0,""CanBig"":0,""Seaweed"":0}",,,1,565.7,0.923076923,2,2,2,2,2,2,1,2,2,2,1,2,2,100,,0.806451613,,
3658574,4,48,Female,2,5-Apr,0,0,trial_11,,0,,,1562,1309,,"{""FishSmall"":1,""FishBig"":0,""CanSmall"":1,""CanBig"":1,""Seaweed"":3}","{""FishSmall"":2,""FishBig"":0,""CanSmall"":2,""CanBig"":0,""Seaweed"":2}",100,50,-3.333333333,0,-10,3.333333333,9.428090416,8.164965809,3,2,3.333333333,-1.263124607,-1,-50,"{""FishSmall"":1,""FishBig"":0,""CanSmall"":0,""CanBig"":2,""Seaweed"":0}","{""FishSmall"":2,""FishBig"":0,""CanSmall"":1,""CanBig"":0,""Seaweed"":0}",-10,0,1,565.7,0.923076923,2,2,2,2,2,2,1,2,2,2,1,2,2,100,11,0.806451613,-20,-10
3658574,4,48,Female,2,5-Apr,0,0,trial_12,,0,1,,929,1403,2306,"{""FishSmall"":1,""FishBig"":1,""CanSmall"":1,""CanBig"":0,""Seaweed"":3}","{""FishSmall"":0,""FishBig"":0,""CanSmall"":2,""CanBig"":1,""Seaweed"":3}",100,50,3.333333333,-6.666666667,0,-13.33333333,9.428090416,7.453559925,3,3,-10,-1.974530491,0,-50,"{""FishSmall"":0,""FishBig"":1,""CanSmall"":2,""CanBig"":0,""Seaweed"":0}","{""FishSmall"":0,""FishBig"":0,""CanSmall"":2,""CanBig"":1,""Seaweed"":0}",0,-6.666666667,1,565.7,0.923076923,2,2,2,2,2,2,1,2,2,2,1,2,2,100,12,0.806451613,20,0
3658574,4,48,Female,2,5-Apr,0,0,trial_13,,,,,831,,,"{""FishSmall"":1,""FishBig"":0,""CanSmall"":3,""CanBig"":1,""Seaweed"":1}","{""FishSmall"":2,""FishBig"":0,""CanSmall"":3,""CanBig"":0,""Seaweed"":1}",0,0,-6.666666667,-1.666666667,-6.666666667,6.666666667,9.428090416,8.975274679,1,1,5,-0.452815737,0,0,"{""FishSmall"":1,""FishBig"":0,""CanSmall"":1,""CanBig"":1,""Seaweed"":0}","{""FishSmall"":1,""FishBig"":1,""CanSmall"":1,""CanBig"":0,""Seaweed"":0}",-6.666666667,-1.666666667,1,565.7,0.923076923,2,2,2,2,2,2,1,2,2,2,1,2,2,100,13,0.806451613,0,0
3658574,4,48,Female,2,5-Apr,0,0,trial_14,,0,,,812,900,,"{""FishSmall"":3,""FishBig"":0,""CanSmall"":1,""CanBig"":0,""Seaweed"":2}","{""FishSmall"":4,""FishBig"":0,""CanSmall"":1,""CanBig"":0,""Seaweed"":1}",50,0,3.333333333,5,0,3.333333333,7.453559925,7.637626158,2,1,1.666666667,0.184066233,-1,-50,"{""FishSmall"":2,""FishBig"":0,""CanSmall"":0,""CanBig"":1,""Seaweed"":0}","{""FishSmall"":2,""FishBig"":0,""CanSmall"":1,""CanBig"":0,""Seaweed"":0}",0,5,1,565.7,0.923076923,2,2,2,2,2,2,1,2,2,2,1,2,2,100,14,0.806451613,-20,10
3658574,4,48,Female,2,5-Apr,0,0,trial_15,,,,,1203,,,"{""FishSmall"":1,""FishBig"":0,""CanSmall"":1,""CanBig"":1,""Seaweed"":3}","{""FishSmall"":1,""FishBig"":1,""CanSmall"":1,""CanBig"":0,""Seaweed"":3}",0,0,-3.333333333,3.333333333,-3.333333333,-6.666666667,9.428090416,9.428090416,3,3,6.666666667,0,0,0,"{""FishSmall"":0,""FishBig"":1,""CanSmall"":1,""CanBig"":1,""Seaweed"":0}","{""FishSmall"":1,""FishBig"":0,""CanSmall"":1,""CanBig"":1,""Seaweed"":0}",-3.333333333,3.333333333,1,565.7,0.923076923,2,2,2,2,2,2,1,2,2,2,1,2,2,100,15,0.806451613,-20,-10
3658574,4,48,Female,2,5-Apr,0,0,trial_16,,,0,,684,,780,"{""FishSmall"":1,""FishBig"":0,""CanSmall"":2,""CanBig"":1,""Seaweed"":2}","{""FishSmall"":2,""FishBig"":1,""CanSmall"":1,""CanBig"":0,""Seaweed"":2}",50,50,-5,5,-13.33333333,3.333333333,9.574271078,9.574271078,2,2,10,0,0,0,"{""FishSmall"":0,""FishBig"":0,""CanSmall"":2,""CanBig"":1,""Seaweed"":0}","{""FishSmall"":2,""FishBig"":0,""CanSmall"":1,""CanBig"":0,""Seaweed"":0}",-13.33333333,5,1,565.7,0.923076923,2,2,2,2,2,2,1,2,2,2,1,2,2,100,16,0.806451613,-10,10
3658574,4,48,Female,2,5-Apr,0,0,trial_17,,0,,,1012,793,,"{""FishSmall"":1,""FishBig"":0,""CanSmall"":2,""CanBig"":1,""Seaweed"":2}","{""FishSmall"":2,""FishBig"":0,""CanSmall"":1,""CanBig"":0,""Seaweed"":3}",50,0,-5,1.666666667,-3.333333333,-6.666666667,9.574271078,6.871842709,2,3,6.666666667,-2.702428368,1,-50,"{""FishSmall"":0,""FishBig"":1,""CanSmall"":1,""CanBig"":1,""Seaweed"":0}","{""FishSmall"":1,""FishBig"":0,""CanSmall"":1,""CanBig"":1,""Seaweed"":0}",-3.333333333,1.666666667,1,565.7,0.923076923,2,2,2,2,2,2,1,2,2,2,1,2,2,100,17,0.806451613,-10,0
3658574,4,48,Female,2,5-Apr,0,0,trial_18,,0,,,880,803,,"{""FishSmall"":4,""FishBig"":1,""CanSmall"":0,""CanBig"":0,""Seaweed"":1}","{""FishSmall"":1,""FishBig"":0,""CanSmall"":1,""CanBig"":1,""Seaweed"":3}",100,0,10,-3.333333333,13.33333333,-3.333333333,5.773502692,9.428090416,1,3,-13.33333333,3.654587724,2,-100,"{""FishSmall"":2,""FishBig"":1,""CanSmall"":0,""CanBig"":0,""Seaweed"":0}","{""FishSmall"":1,""FishBig"":0,""CanSmall"":2,""CanBig"":0,""Seaweed"":0}",13.33333333,-3.333333333,1,565.7,0.923076923,2,2,2,2,2,2,1,2,2,2,1,2,2,100,18,0.806451613,20,10
3658574,4,48,Female,2,5-Apr,0,0,trial_19,,,0,,598,,1955,"{""FishSmall"":1,""FishBig"":1,""CanSmall"":1,""CanBig"":0,""Seaweed"":3}","{""FishSmall"":3,""FishBig"":2,""CanSmall"":0,""CanBig"":0,""Seaweed"":1}",50,50,3.333333333,11.66666667,-3.333333333,3.333333333,9.428090416,6.871842709,3,1,8.333333333,-2.556247706,-2,0,"{""FishSmall"":1,""FishBig"":0,""CanSmall"":2,""CanBig"":0,""Seaweed"":0}","{""FishSmall"":1,""FishBig"":1,""CanSmall"":0,""CanBig"":1,""Seaweed"":0}",-3.333333333,11.66666667,1,565.7,0.923076923,2,2,2,2,2,2,1,2,2,2,1,2,2,100,19,0.806451613,0,10
