subject_ID,age_in_years,age_in_months,gender,gender_coded,age_group,age_group_coded,info_choice,condition,catch_trials,fishing_choiceL,fishing_choiceR,RT_catch,RT_info_choice,RT_fishingL,RT_fishingR,items_countL,items_countR,agency_probL,agency_probR,EV_L,EV_R,SD_L,SD_R,uncertainty_level_L,uncertainty_level_R,delta_EV,delta_SD,delta_uncertainty_level,delta_agency,items_count_flashL,items_count_flashR,wob,avg_wob_RT,percent_comprehension,q1,q2,q3,q4,q5,q6,q7,q8,q9,q10,q11,q12,q13,catch_trials_score,trial_number,prop_correct_fishing
6487920.0,5.0,60.0,Female,2.0,4-5,0.0,0.0,trial_1,,0.0,,,4959.0,4630.0,,"{""FishSmall"":2,""FishBig"":0,""CanSmall"":2,""CanBig"":0,""Seaweed"":2}","{""FishSmall"":0,""FishBig"":0,""CanSmall"":2,""CanBig"":2,""Seaweed"":2}",100.0,0.0,0.0,-10.0,8.16496580927726,8.16496580927726,2.0,2.0,-10.0,0.0,0.0,-100.0,"{""FishSmall"":2,""FishBig"":0,""CanSmall"":1,""CanBig"":0,""Seaweed"":0}","{""FishSmall"":0,""FishBig"":0,""CanSmall"":1,""CanBig"":2,""Seaweed"":0}",1.0,9950.3,0.8076923076923077,2.0,1.0,2.0,2.0,1.0,1.0,1.0,1.0,2.0,2.0,2.0,2.0,2.0,100.0,1,0.625
6487920.0,5.0,60.0,Female,2.0,4-5,0.0,1.0,trial_2,,0.0,0.0,,12229.0,3909.0,4680.0,"{""FishSmall"":1,""FishBig"":0,""CanSmall"":1,""CanBig"":1,""Seaweed"":3}","{""FishSmall"":2,""FishBig"":0,""CanSmall"":4,""CanBig"":0,""Seaweed"":0}",100.0,100.0,-3.3333333333333335,-3.3333333333333335,9.428090415820634,9.428090415820634,3.0,0.0,0.0,0.0,-3.0,0.0,"{""FishSmall"":1,""FishBig"":1,""CanSmall"":1,""CanBig"":0,""Seaweed"":0}","{""FishSmall"":1,""FishBig"":0,""CanSmall"":2,""CanBig"":0,""Seaweed"":0}",1.0,9950.3,0.8076923076923077,2.0,1.0,2.0,2.0,1.0,1.0,1.0,1.0,2.0,2.0,2.0,2.0,2.0,100.0,2,0.625
6487920.0,5.0,60.0,Female,2.0,4-5,0.0,0.0,trial_3,,0.0,1.0,,8427.0,9329.0,8507.0,"{""FishSmall"":2,""FishBig"":1,""CanSmall"":1,""CanBig"":0,""Seaweed"":2}","{""FishSmall"":0,""FishBig"":0,""CanSmall"":1,""CanBig"":2,""Seaweed"":3}",100.0,50.0,5.0,-8.333333333333334,9.574271077563381,8.975274678557506,2.0,3.0,-13.333333333333334,-0.5989963990058751,1.0,-50.0,"{""FishSmall"":0,""FishBig"":2,""CanSmall"":1,""CanBig"":0,""Seaweed"":0}","{""FishSmall"":0,""FishBig"":0,""CanSmall"":2,""CanBig"":1,""Seaweed"":0}",1.0,9950.3,0.8076923076923077,2.0,1.0,2.0,2.0,1.0,1.0,1.0,1.0,2.0,2.0,2.0,2.0,2.0,100.0,3,0.625
6487920.0,5.0,60.0,Female,2.0,4-5,0.0,1.0,trial_4,,,0.0,,13951.0,,4375.0,"{""FishSmall"":3,""FishBig"":0,""CanSmall"":2,""CanBig"":0,""Seaweed"":1}","{""FishSmall"":1,""FishBig"":0,""CanSmall"":1,""CanBig"":1,""Seaweed"":3}",0.0,50.0,1.6666666666666667,-3.3333333333333335,8.975274678557506,9.428090415820634,1.0,3.0,-5.0,0.45281573726312807,2.0,50.0,"{""FishSmall"":2,""FishBig"":0,""CanSmall"":1,""CanBig"":0,""Seaweed"":0}","{""FishSmall"":1,""FishBig"":0,""CanSmall"":1,""CanBig"":1,""Seaweed"":0}",1.0,9950.3,0.8076923076923077,2.0,1.0,2.0,2.0,1.0,1.0,1.0,1.0,2.0,2.0,2.0,2.0,2.0,100.0,4,0.625
6487920.0,5.0,60.0,Female,2.0,4-5,0.0,0.0,trial_5,,,0.0,,11366.0,,8820.0,"{""FishSmall"":0,""FishBig"":0,""CanSmall"":2,""CanBig"":2,""Seaweed"":2}","{""FishSmall"":1,""FishBig"":0,""CanSmall"":2,""CanBig"":1,""Seaweed"":2}",0.0,100.0,-10.0,-5.0,8.16496580927726,9.574271077563381,2.0,2.0,5.0,1.4093052682861202,0.0,100.0,"{""FishSmall"":0,""FishBig"":0,""CanSmall"":1,""CanBig"":2,""Seaweed"":0}","{""FishSmall"":1,""FishBig"":0,""CanSmall"":0,""CanBig"":2,""Seaweed"":0}",1.0,9950.3,0.8076923076923077,2.0,1.0,2.0,2.0,1.0,1.0,1.0,1.0,2.0,2.0,2.0,2.0,2.0,100.0,5,0.625
6487920.0,5.0,60.0,Female,2.0,4-5,0.0,1.0,trial_6,,,,,14182.0,,,"{""FishSmall"":4,""FishBig"":1,""CanSmall"":1,""CanBig"":0,""Seaweed"":0}","{""FishSmall"":0,""FishBig"":0,""CanSmall"":2,""CanBig"":1,""Seaweed"":3}",0.0,50.0,8.333333333333334,-6.666666666666667,8.975274678557506,7.453559924999299,0.0,3.0,-15.0,-1.5217147535582072,3.0,50.0,"{""FishSmall"":3,""FishBig"":0,""CanSmall"":0,""CanBig"":0,""Seaweed"":0}","{""FishSmall"":0,""FishBig"":1,""CanSmall"":2,""CanBig"":0,""Seaweed"":0}",1.0,9950.3,0.8076923076923077,2.0,1.0,2.0,2.0,1.0,1.0,1.0,1.0,2.0,2.0,2.0,2.0,2.0,100.0,6,0.625
6487920.0,5.0,60.0,Female,2.0,4-5,0.0,1.0,trial_7,,0.0,1.0,,20533.0,3636.0,16663.0,"{""FishSmall"":2,""FishBig"":0,""CanSmall"":2,""CanBig"":0,""Seaweed"":2}","{""FishSmall"":1,""FishBig"":0,""CanSmall"":2,""CanBig"":0,""Seaweed"":3}",100.0,100.0,0.0,-1.6666666666666667,8.16496580927726,6.871842709362768,2.0,3.0,-1.6666666666666667,-1.2931230999144931,1.0,0.0,"{""FishSmall"":2,""FishBig"":0,""CanSmall"":1,""CanBig"":0,""Seaweed"":0}","{""FishSmall"":1,""FishBig"":1,""CanSmall"":1,""CanBig"":0,""Seaweed"":0}",1.0,9950.3,0.8076923076923077,2.0,1.0,2.0,2.0,1.0,1.0,1.0,1.0,2.0,2.0,2.0,2.0,2.0,100.0,7,0.625
6487920.0,5.0,60.0,Female,2.0,4-5,0.0,0.0,trial_8,,0.0,0.0,,10577.0,21938.0,37139.0,"{""FishSmall"":0,""FishBig"":0,""CanSmall"":1,""CanBig"":2,""Seaweed"":3}","{""FishSmall"":0,""FishBig"":0,""CanSmall"":4,""CanBig"":0,""Seaweed"":2}",100.0,100.0,-8.333333333333334,-6.666666666666667,8.975274678557506,4.714045207910317,3.0,2.0,1.666666666666667,-4.261229470647189,-1.0,0.0,"{""FishSmall"":0,""FishBig"":1,""CanSmall"":0,""CanBig"":2,""Seaweed"":0}","{""FishSmall"":0,""FishBig"":1,""CanSmall"":2,""CanBig"":0,""Seaweed"":0}",1.0,9950.3,0.8076923076923077,2.0,1.0,2.0,2.0,1.0,1.0,1.0,1.0,2.0,2.0,2.0,2.0,2.0,100.0,8,0.625
6487920.0,5.0,60.0,Female,2.0,4-5,0.0,0.0,trial_9,,0.0,1.0,,60614.0,5378.0,10740.0,"{""FishSmall"":0,""FishBig"":0,""CanSmall"":1,""CanBig"":3,""Seaweed"":2}","{""FishSmall"":1,""FishBig"":0,""CanSmall"":3,""CanBig"":0,""Seaweed"":2}",100.0,100.0,-11.666666666666666,-3.3333333333333335,8.975274678557506,7.453559924999299,2.0,2.0,8.333333333333332,-1.5217147535582072,0.0,0.0,"{""FishSmall"":0,""FishBig"":1,""CanSmall"":0,""CanBig"":2,""Seaweed"":0}","{""FishSmall"":2,""FishBig"":0,""CanSmall"":1,""CanBig"":0,""Seaweed"":0}",1.0,9950.3,0.8076923076923077,2.0,1.0,2.0,2.0,1.0,1.0,1.0,1.0,2.0,2.0,2.0,2.0,2.0,100.0,9,0.625
6487920.0,5.0,60.0,Female,2.0,4-5,0.0,0.0,trial_10,,1.0,1.0,,7717.0,6709.0,6828.0,"{""FishSmall"":1,""FishBig"":0,""CanSmall"":2,""CanBig"":1,""Seaweed"":2}","{""FishSmall"":0,""FishBig"":0,""CanSmall"":4,""CanBig"":0,""Seaweed"":2}",100.0,100.0,-5.0,-6.666666666666667,9.574271077563381,4.714045207910317,2.0,2.0,-1.666666666666667,-4.860225869653064,0.0,0.0,"{""FishSmall"":0,""FishBig"":0,""CanSmall"":3,""CanBig"":0,""Seaweed"":0}","{""FishSmall"":0,""FishBig"":0,""CanSmall"":3,""CanBig"":0,""Seaweed"":0}",1.0,9950.3,0.8076923076923077,2.0,1.0,2.0,2.0,1.0,1.0,1.0,1.0,2.0,2.0,2.0,2.0,2.0,100.0,10,0.625
6487920.0,5.0,60.0,Female,2.0,4-5,0.0,,catch_1,0.0,,,6436.0,,,,"{""FishSmall"":4,""FishBig"":2,""CanSmall"":0,""CanBig"":0,""Seaweed"":0}","{""FishSmall"":4,""FishBig"":2,""CanSmall"":0,""CanBig"":0,""Seaweed"":0}",0.0,0.0,,,,,,,,,,,"{""FishSmall"":2,""FishBig"":1,""CanSmall"":0,""CanBig"":0,""Seaweed"":0}","{""FishSmall"":2,""FishBig"":1,""CanSmall"":0,""CanBig"":0,""Seaweed"":0}",1.0,9950.3,0.8076923076923077,2.0,1.0,2.0,2.0,1.0,1.0,1.0,1.0,2.0,2.0,2.0,2.0,2.0,100.0,,0.625
6487920.0,5.0,60.0,Female,2.0,4-5,0.0,0.0,trial_11,,,,,12982.0,,,"{""FishSmall"":0,""FishBig"":4,""CanSmall"":0,""CanBig"":0,""Seaweed"":2}","{""FishSmall"":0,""FishBig"":0,""CanSmall"":3,""CanBig"":2,""Seaweed"":1}",0.0,0.0,13.333333333333334,-11.666666666666666,9.428090415820634,6.871842709362768,2.0,1.0,-25.0,-2.5562477064578664,-1.0,0.0,"{""FishSmall"":1,""FishBig"":2,""CanSmall"":0,""CanBig"":0,""Seaweed"":0}","{""FishSmall"":0,""FishBig"":0,""CanSmall"":2,""CanBig"":1,""Seaweed"":0}",1.0,9950.3,0.8076923076923077,2.0,1.0,2.0,2.0,1.0,1.0,1.0,1.0,2.0,2.0,2.0,2.0,2.0,100.0,11,0.625
6487920.0,5.0,60.0,Female,2.0,4-5,0.0,1.0,trial_12,,,0.0,,6006.0,,6883.0,"{""FishSmall"":0,""FishBig"":0,""CanSmall"":2,""CanBig"":3,""Seaweed"":1}","{""FishSmall"":2,""FishBig"":1,""CanSmall"":1,""CanBig"":0,""Seaweed"":2}",0.0,100.0,-13.333333333333334,5.0,7.453559924999299,9.574271077563381,1.0,2.0,18.333333333333336,2.1207111525640823,1.0,100.0,"{""FishSmall"":0,""FishBig"":1,""CanSmall"":1,""CanBig"":1,""Seaweed"":0}","{""FishSmall"":2,""FishBig"":1,""CanSmall"":0,""CanBig"":0,""Seaweed"":0}",1.0,9950.3,0.8076923076923077,2.0,1.0,2.0,2.0,1.0,1.0,1.0,1.0,2.0,2.0,2.0,2.0,2.0,100.0,12,0.625
6487920.0,5.0,60.0,Female,2.0,4-5,0.0,0.0,trial_13,,1.0,0.0,,7785.0,9979.0,9629.0,"{""FishSmall"":3,""FishBig"":1,""CanSmall"":1,""CanBig"":0,""Seaweed"":1}","{""FishSmall"":2,""FishBig"":4,""CanSmall"":0,""CanBig"":0,""Seaweed"":0}",100.0,50.0,6.666666666666667,16.666666666666668,9.428090415820634,4.714045207910316,1.0,0.0,10.0,-4.714045207910318,-1.0,-50.0,"{""FishSmall"":1,""FishBig"":0,""CanSmall"":1,""CanBig"":1,""Seaweed"":0}","{""FishSmall"":1,""FishBig"":2,""CanSmall"":0,""CanBig"":0,""Seaweed"":0}",1.0,9950.3,0.8076923076923077,2.0,1.0,2.0,2.0,1.0,1.0,1.0,1.0,2.0,2.0,2.0,2.0,2.0,100.0,13,0.625
6487920.0,5.0,60.0,Female,2.0,4-5,0.0,0.0,trial_14,,,,,12223.0,,,"{""FishSmall"":3,""FishBig"":1,""CanSmall"":0,""CanBig"":0,""Seaweed"":2}","{""FishSmall"":5,""FishBig"":0,""CanSmall"":0,""CanBig"":0,""Seaweed"":1}",50.0,0.0,8.333333333333334,8.333333333333334,6.871842709362768,3.72677996249965,2.0,1.0,0.0,-3.145062746863118,-1.0,-50.0,"{""FishSmall"":2,""FishBig"":0,""CanSmall"":0,""CanBig"":1,""Seaweed"":0}","{""FishSmall"":3,""FishBig"":0,""CanSmall"":0,""CanBig"":0,""Seaweed"":0}",1.0,9950.3,0.8076923076923077,2.0,1.0,2.0,2.0,1.0,1.0,1.0,1.0,2.0,2.0,2.0,2.0,2.0,100.0,14,0.625
6487920.0,5.0,60.0,Female,2.0,4-5,0.0,0.0,trial_15,,1.0,1.0,,4522.0,8629.0,9847.0,"{""FishSmall"":2,""FishBig"":0,""CanSmall"":2,""CanBig"":0,""Seaweed"":2}","{""FishSmall"":2,""FishBig"":0,""CanSmall"":1,""CanBig"":0,""Seaweed"":3}",100.0,50.0,0.0,1.6666666666666667,8.16496580927726,6.871842709362768,2.0,3.0,1.6666666666666667,-1.2931230999144931,1.0,-50.0,"{""FishSmall"":1,""FishBig"":0,""CanSmall"":2,""CanBig"":0,""Seaweed"":0}","{""FishSmall"":2,""FishBig"":0,""CanSmall"":1,""CanBig"":0,""Seaweed"":0}",1.0,9950.3,0.8076923076923077,2.0,1.0,2.0,2.0,1.0,1.0,1.0,1.0,2.0,2.0,2.0,2.0,2.0,100.0,15,0.625
6487920.0,5.0,60.0,Female,2.0,4-5,0.0,1.0,trial_16,,,1.0,,3632.0,,1924.0,"{""FishSmall"":2,""FishBig"":0,""CanSmall"":2,""CanBig"":0,""Seaweed"":2}","{""FishSmall"":1,""FishBig"":4,""CanSmall"":0,""CanBig"":0,""Seaweed"":1}",0.0,100.0,0.0,15.0,8.16496580927726,7.637626158259733,2.0,1.0,15.0,-0.5273396510175274,-1.0,100.0,"{""FishSmall"":2,""FishBig"":0,""CanSmall"":1,""CanBig"":0,""Seaweed"":0}","{""FishSmall"":0,""FishBig"":3,""CanSmall"":0,""CanBig"":0,""Seaweed"":0}",1.0,9950.3,0.8076923076923077,2.0,1.0,2.0,2.0,1.0,1.0,1.0,1.0,2.0,2.0,2.0,2.0,2.0,100.0,16,0.625
6487920.0,5.0,60.0,Female,2.0,4-5,0.0,1.0,trial_17,,,1.0,,7476.0,,5312.0,"{""FishSmall"":1,""FishBig"":0,""CanSmall"":4,""CanBig"":0,""Seaweed"":1}","{""FishSmall"":2,""FishBig"":1,""CanSmall"":1,""CanBig"":0,""Seaweed"":2}",50.0,100.0,-5.0,5.0,7.637626158259733,9.574271077563381,1.0,2.0,10.0,1.9366449193036477,1.0,50.0,"{""FishSmall"":1,""FishBig"":0,""CanSmall"":2,""CanBig"":0,""Seaweed"":0}","{""FishSmall"":1,""FishBig"":0,""CanSmall"":1,""CanBig"":1,""Seaweed"":0}",1.0,9950.3,0.8076923076923077,2.0,1.0,2.0,2.0,1.0,1.0,1.0,1.0,2.0,2.0,2.0,2.0,2.0,100.0,17,0.625
6487920.0,5.0,60.0,Female,2.0,4-5,0.0,1.0,trial_18,,,,,3509.0,,,"{""FishSmall"":0,""FishBig"":0,""CanSmall"":1,""CanBig"":4,""Seaweed"":1}","{""FishSmall"":3,""FishBig"":0,""CanSmall"":0,""CanBig"":0,""Seaweed"":3}",50.0,50.0,-15.0,5.0,7.637626158259733,5.0,1.0,3.0,20.0,-2.6376261582597333,2.0,0.0,"{""FishSmall"":0,""FishBig"":0,""CanSmall"":1,""CanBig"":2,""Seaweed"":0}","{""FishSmall"":2,""FishBig"":0,""CanSmall"":1,""CanBig"":0,""Seaweed"":0}",1.0,9950.3,0.8076923076923077,2.0,1.0,2.0,2.0,1.0,1.0,1.0,1.0,2.0,2.0,2.0,2.0,2.0,100.0,18,0.625
6487920.0,5.0,60.0,Female,2.0,4-5,0.0,1.0,trial_19,,0.0,1.0,,1573.0,7404.0,1434.0,"{""FishSmall"":3,""FishBig"":2,""CanSmall"":0,""CanBig"":0,""Seaweed"":1}","{""FishSmall"":3,""FishBig"":1,""CanSmall"":1,""CanBig"":0,""Seaweed"":1}",100.0,100.0,11.666666666666666,6.666666666666667,6.871842709362768,9.428090415820634,1.0,1.0,-4.999999999999999,2.5562477064578664,0.0,0.0,"{""FishSmall"":2,""FishBig"":0,""CanSmall"":0,""CanBig"":1,""Seaweed"":0}","{""FishSmall"":2,""FishBig"":0,""CanSmall"":0,""CanBig"":1,""Seaweed"":0}",1.0,9950.3,0.8076923076923077,2.0,1.0,2.0,2.0,1.0,1.0,1.0,1.0,2.0,2.0,2.0,2.0,2.0,100.0,19,0.625
6487920.0,5.0,60.0,Female,2.0,4-5,0.0,1.0,trial_20,,0.0,0.0,,6480.0,20862.0,7077.0,"{""FishSmall"":0,""FishBig"":0,""CanSmall"":1,""CanBig"":3,""Seaweed"":2}","{""FishSmall"":0,""FishBig"":0,""CanSmall"":2,""CanBig"":2,""Seaweed"":2}",50.0,100.0,-11.666666666666666,-10.0,8.975274678557506,8.16496580927726,2.0,2.0,1.666666666666666,-0.8103088692802451,0.0,50.0,"{""FishSmall"":0,""FishBig"":0,""CanSmall"":0,""CanBig"":3,""Seaweed"":0}","{""FishSmall"":0,""FishBig"":1,""CanSmall"":1,""CanBig"":1,""Seaweed"":0}",1.0,9950.3,0.8076923076923077,2.0,1.0,2.0,2.0,1.0,1.0,1.0,1.0,2.0,2.0,2.0,2.0,2.0,100.0,20,0.625
6487920.0,5.0,60.0,Female,2.0,4-5,0.0,,catch_2,1.0,,,5835.0,,,,"{""FishSmall"":0,""FishBig"":0,""CanSmall"":3,""CanBig"":3,""Seaweed"":0}","{""FishSmall"":0,""FishBig"":0,""CanSmall"":3,""CanBig"":3,""Seaweed"":0}",0.0,0.0,,,,,,,,,,,"{""FishSmall"":0,""FishBig"":0,""CanSmall"":1,""CanBig"":2,""Seaweed"":0}","{""FishSmall"":0,""FishBig"":0,""CanSmall"":1,""CanBig"":2,""Seaweed"":0}",1.0,9950.3,0.8076923076923077,2.0,1.0,2.0,2.0,1.0,1.0,1.0,1.0,2.0,2.0,2.0,2.0,2.0,100.0,,0.625
6487920.0,5.0,60.0,Female,2.0,4-5,0.0,0.0,trial_21,,0.0,,,10683.0,6658.0,,"{""FishSmall"":1,""FishBig"":3,""CanSmall"":0,""CanBig"":0,""Seaweed"":2}","{""FishSmall"":2,""FishBig"":1,""CanSmall"":0,""CanBig"":0,""Seaweed"":3}",100.0,50.0,11.666666666666666,6.666666666666667,8.975274678557506,7.453559924999299,2.0,3.0,-4.999999999999999,-1.5217147535582072,1.0,-50.0,"{""FishSmall"":0,""FishBig"":2,""CanSmall"":1,""CanBig"":0,""Seaweed"":0}","{""FishSmall"":1,""FishBig"":0,""CanSmall"":1,""CanBig"":1,""Seaweed"":0}",1.0,9950.3,0.8076923076923077,2.0,1.0,2.0,2.0,1.0,1.0,1.0,1.0,2.0,2.0,2.0,2.0,2.0,100.0,21,0.625
6487920.0,5.0,60.0,Female,2.0,4-5,0.0,1.0,trial_22,,,0.0,,16977.0,,3470.0,"{""FishSmall"":1,""FishBig"":0,""CanSmall"":3,""CanBig"":0,""Seaweed"":2}","{""FishSmall"":2,""FishBig"":1,""CanSmall"":1,""CanBig"":0,""Seaweed"":2}",50.0,100.0,-3.3333333333333335,5.0,7.453559924999299,9.574271077563381,2.0,2.0,8.333333333333334,2.1207111525640823,0.0,50.0,"{""FishSmall"":0,""FishBig"":1,""CanSmall"":2,""CanBig"":0,""Seaweed"":0}","{""FishSmall"":1,""FishBig"":1,""CanSmall"":1,""CanBig"":0,""Seaweed"":0}",1.0,9950.3,0.8076923076923077,2.0,1.0,2.0,2.0,1.0,1.0,1.0,1.0,2.0,2.0,2.0,2.0,2.0,100.0,22,0.625
6487920.0,5.0,60.0,Female,2.0,4-5,0.0,1.0,trial_23,,,,,4930.0,,,"{""FishSmall"":2,""FishBig"":0,""CanSmall"":3,""CanBig"":0,""Seaweed"":1}","{""FishSmall"":1,""FishBig"":2,""CanSmall"":0,""CanBig"":0,""Seaweed"":3}",0.0,0.0,-1.6666666666666667,8.333333333333334,8.975274678557506,8.975274678557506,1.0,3.0,10.0,0.0,2.0,0.0,"{""FishSmall"":1,""FishBig"":1,""CanSmall"":1,""CanBig"":0,""Seaweed"":0}","{""FishSmall"":1,""FishBig"":2,""CanSmall"":0,""CanBig"":0,""Seaweed"":0}",1.0,9950.3,0.8076923076923077,2.0,1.0,2.0,2.0,1.0,1.0,1.0,1.0,2.0,2.0,2.0,2.0,2.0,100.0,23,0.625
6487920.0,5.0,60.0,Female,2.0,4-5,0.0,0.0,trial_24,,,,,26003.0,,,"{""FishSmall"":2,""FishBig"":3,""CanSmall"":0,""CanBig"":0,""Seaweed"":1}","{""FishSmall"":1,""FishBig"":0,""CanSmall"":2,""CanBig"":1,""Seaweed"":2}",0.0,0.0,13.333333333333334,-5.0,7.453559924999299,9.574271077563381,1.0,2.0,-18.333333333333336,2.1207111525640823,1.0,0.0,"{""FishSmall"":1,""FishBig"":2,""CanSmall"":0,""CanBig"":0,""Seaweed"":0}","{""FishSmall"":2,""FishBig"":0,""CanSmall"":0,""CanBig"":1,""Seaweed"":0}",1.0,9950.3,0.8076923076923077,2.0,1.0,2.0,2.0,1.0,1.0,1.0,1.0,2.0,2.0,2.0,2.0,2.0,100.0,24,0.625
6487920.0,5.0,60.0,Female,2.0,4-5,0.0,0.0,trial_25,,0.0,,,42521.0,3661.0,,"{""FishSmall"":4,""FishBig"":2,""CanSmall"":0,""CanBig"":0,""Seaweed"":0}","{""FishSmall"":0,""FishBig"":0,""CanSmall"":2,""CanBig"":3,""Seaweed"":1}",100.0,50.0,13.333333333333334,-13.333333333333334,4.714045207910316,7.453559924999299,0.0,1.0,-26.666666666666668,2.7395147170889826,1.0,-50.0,"{""FishSmall"":2,""FishBig"":1,""CanSmall"":0,""CanBig"":0,""Seaweed"":0}","{""FishSmall"":0,""FishBig"":0,""CanSmall"":1,""CanBig"":2,""Seaweed"":0}",1.0,9950.3,0.8076923076923077,2.0,1.0,2.0,2.0,1.0,1.0,1.0,1.0,2.0,2.0,2.0,2.0,2.0,100.0,25,0.625
6487920.0,5.0,60.0,Female,2.0,4-5,0.0,0.0,trial_26,,0.0,,,12323.0,6847.0,,"{""FishSmall"":2,""FishBig"":2,""CanSmall"":0,""CanBig"":0,""Seaweed"":2}","{""FishSmall"":1,""FishBig"":0,""CanSmall"":2,""CanBig"":1,""Seaweed"":2}",50.0,0.0,10.0,-5.0,8.16496580927726,9.574271077563381,2.0,2.0,-15.0,1.4093052682861202,0.0,-50.0,"{""FishSmall"":1,""FishBig"":2,""CanSmall"":0,""CanBig"":0,""Seaweed"":0}","{""FishSmall"":1,""FishBig"":0,""CanSmall"":2,""CanBig"":0,""Seaweed"":0}",1.0,9950.3,0.8076923076923077,2.0,1.0,2.0,2.0,1.0,1.0,1.0,1.0,2.0,2.0,2.0,2.0,2.0,100.0,26,0.625
6487920.0,5.0,60.0,Female,2.0,4-5,0.0,0.0,trial_27,,,,,5492.0,,,"{""FishSmall"":3,""FishBig"":0,""CanSmall"":2,""CanBig"":0,""Seaweed"":1}","{""FishSmall"":1,""FishBig"":0,""CanSmall"":4,""CanBig"":0,""Seaweed"":1}",0.0,0.0,1.6666666666666667,-5.0,8.975274678557506,7.637626158259733,1.0,1.0,-6.666666666666667,-1.3376485202977726,0.0,0.0,"{""FishSmall"":2,""FishBig"":0,""CanSmall"":1,""CanBig"":0,""Seaweed"":0}","{""FishSmall"":0,""FishBig"":0,""CanSmall"":3,""CanBig"":0,""Seaweed"":0}",1.0,9950.3,0.8076923076923077,2.0,1.0,2.0,2.0,1.0,1.0,1.0,1.0,2.0,2.0,2.0,2.0,2.0,100.0,27,0.625
6487920.0,5.0,60.0,Female,2.0,4-5,0.0,0.0,trial_28,,,,,24479.0,,,"{""FishSmall"":2,""FishBig"":1,""CanSmall"":1,""CanBig"":0,""Seaweed"":2}","{""FishSmall"":1,""FishBig"":0,""CanSmall"":3,""CanBig"":1,""Seaweed"":1}",50.0,50.0,5.0,-6.666666666666667,9.574271077563381,9.428090415820632,2.0,1.0,-11.666666666666668,-0.1461806617427488,-1.0,0.0,"{""FishSmall"":1,""FishBig"":0,""CanSmall"":2,""CanBig"":0,""Seaweed"":0}","{""FishSmall"":1,""FishBig"":0,""CanSmall"":2,""CanBig"":0,""Seaweed"":0}",1.0,9950.3,0.8076923076923077,2.0,1.0,2.0,2.0,1.0,1.0,1.0,1.0,2.0,2.0,2.0,2.0,2.0,100.0,28,0.625
6487920.0,5.0,60.0,Female,2.0,4-5,0.0,1.0,trial_29,,,1.0,,9639.0,,5085.0,"{""FishSmall"":0,""FishBig"":0,""CanSmall"":0,""CanBig"":4,""Seaweed"":2}","{""FishSmall"":0,""FishBig"":0,""CanSmall"":1,""CanBig"":4,""Seaweed"":1}",50.0,100.0,-13.333333333333334,-15.0,9.428090415820634,7.637626158259733,2.0,1.0,-1.666666666666666,-1.7904642575609007,-1.0,50.0,"{""FishSmall"":0,""FishBig"":1,""CanSmall"":0,""CanBig"":2,""Seaweed"":0}","{""FishSmall"":0,""FishBig"":0,""CanSmall"":1,""CanBig"":2,""Seaweed"":0}",1.0,9950.3,0.8076923076923077,2.0,1.0,2.0,2.0,1.0,1.0,1.0,1.0,2.0,2.0,2.0,2.0,2.0,100.0,29,0.625
6487920.0,5.0,60.0,Female,2.0,4-5,0.0,0.0,trial_30,,1.0,,,27384.0,10089.0,,"{""FishSmall"":0,""FishBig"":0,""CanSmall"":0,""CanBig"":5,""Seaweed"":1}","{""FishSmall"":3,""FishBig"":1,""CanSmall"":0,""CanBig"":0,""Seaweed"":2}",50.0,50.0,-16.666666666666668,8.333333333333334,7.4535599249993,6.871842709362768,1.0,2.0,25.0,-0.581717215636532,1.0,0.0,"{""FishSmall"":0,""FishBig"":0,""CanSmall"":1,""CanBig"":2,""Seaweed"":0}","{""FishSmall"":2,""FishBig"":0,""CanSmall"":0,""CanBig"":1,""Seaweed"":0}",1.0,9950.3,0.8076923076923077,2.0,1.0,2.0,2.0,1.0,1.0,1.0,1.0,2.0,2.0,2.0,2.0,2.0,100.0,30,0.625
6487966.0,10.0,127.0,Male,1.0,10-12,3.0,0.0,trial_1,,1.0,0.0,,2984.0,3805.0,3775.0,"{""FishSmall"":1,""FishBig"":0,""CanSmall"":2,""CanBig"":1,""Seaweed"":2}","{""FishSmall"":1,""FishBig"":0,""CanSmall"":3,""CanBig"":0,""Seaweed"":2}",50.0,100.0,-5.0,-3.3333333333333335,9.574271077563381,7.453559924999299,2.0,2.0,1.6666666666666665,-2.1207111525640823,0.0,50.0,"{""FishSmall"":1,""FishBig"":0,""CanSmall"":0,""CanBig"":2,""Seaweed"":0}","{""FishSmall"":0,""FishBig"":2,""CanSmall"":1,""CanBig"":0,""Seaweed"":0}",1.0,941.2,1.0,2.0,2.0,2.0,2.0,2.0,2.0,2.0,2.0,2.0,2.0,2.0,2.0,2.0,100.0,1,0.8387096774193549
6487966.0,10.0,127.0,Male,1.0,10-12,3.0,1.0,trial_2,,,0.0,,3324.0,,840.0,"{""FishSmall"":3,""FishBig"":0,""CanSmall"":1,""CanBig"":0,""Seaweed"":2}","{""FishSmall"":2,""FishBig"":1,""CanSmall"":1,""CanBig"":0,""Seaweed"":2}",50.0,50.0,3.3333333333333335,5.0,7.453559924999298,9.574271077563381,2.0,2.0,1.6666666666666665,2.120711152564083,0.0,0.0,"{""FishSmall"":1,""FishBig"":1,""CanSmall"":1,""CanBig"":0,""Seaweed"":0}","{""FishSmall"":1,""FishBig"":1,""CanSmall"":0,""CanBig"":1,""Seaweed"":0}",1.0,941.2,1.0,2.0,2.0,2.0,2.0,2.0,2.0,2.0,2.0,2.0,2.0,2.0,2.0,2.0,100.0,2,0.8387096774193549
6487966.0,10.0,127.0,Male,1.0,10-12,3.0,1.0,trial_3,,1.0,0.0,,4332.0,3522.0,1565.0,"{""FishSmall"":0,""FishBig"":0,""CanSmall"":4,""CanBig"":2,""Seaweed"":0}","{""FishSmall"":5,""FishBig"":1,""CanSmall"":0,""CanBig"":0,""Seaweed"":0}",50.0,50.0,-13.333333333333334,11.666666666666666,4.714045207910316,3.72677996249965,0.0,0.0,25.0,-0.9872652454106663,0.0,0.0,"{""FishSmall"":0,""FishBig"":0,""CanSmall"":2,""CanBig"":1,""Seaweed"":0}","{""FishSmall"":3,""FishBig"":0,""CanSmall"":0,""CanBig"":0,""Seaweed"":0}",1.0,941.2,1.0,2.0,2.0,2.0,2.0,2.0,2.0,2.0,2.0,2.0,2.0,2.0,2.0,2.0,100.0,3,0.8387096774193549
6487966.0,10.0,127.0,Male,1.0,10-12,3.0,1.0,trial_4,,,1.0,,8275.0,,1663.0,"{""FishSmall"":1,""FishBig"":0,""CanSmall"":1,""CanBig"":1,""Seaweed"":3}","{""FishSmall"":1,""FishBig"":0,""CanSmall"":1,""CanBig"":1,""Seaweed"":3}",50.0,100.0,-3.3333333333333335,-3.3333333333333335,9.428090415820634,9.428090415820634,3.0,3.0,0.0,0.0,0.0,50.0,"{""FishSmall"":1,""FishBig"":0,""CanSmall"":1,""CanBig"":1,""Seaweed"":0}","{""FishSmall"":2,""FishBig"":0,""CanSmall"":1,""CanBig"":0,""Seaweed"":0}",1.0,941.2,1.0,2.0,2.0,2.0,2.0,2.0,2.0,2.0,2.0,2.0,2.0,2.0,2.0,2.0,100.0,4,0.8387096774193549
6487966.0,10.0,127.0,Male,1.0,10-12,3.0,1.0,trial_5,,1.0,,,1255.0,2207.0,,"{""FishSmall"":0,""FishBig"":0,""CanSmall"":2,""CanBig"":4,""Seaweed"":0}","{""FishSmall"":3,""FishBig"":0,""CanSmall"":2,""CanBig"":0,""Seaweed"":1}",50.0,0.0,-16.666666666666668,1.6666666666666667,4.714045207910316,8.975274678557506,0.0,1.0,18.333333333333336,4.26122947064719,1.0,-50.0,"{""FishSmall"":0,""FishBig"":0,""CanSmall"":1,""CanBig"":2,""Seaweed"":0}","{""FishSmall"":2,""FishBig"":0,""CanSmall"":1,""CanBig"":0,""Seaweed"":0}",1.0,941.2,1.0,2.0,2.0,2.0,2.0,2.0,2.0,2.0,2.0,2.0,2.0,2.0,2.0,2.0,100.0,5,0.8387096774193549
6487966.0,10.0,127.0,Male,1.0,10-12,3.0,1.0,trial_6,,,0.0,,2499.0,,1794.0,"{""FishSmall"":2,""FishBig"":0,""CanSmall"":2,""CanBig"":0,""Seaweed"":2}","{""FishSmall"":2,""FishBig"":1,""CanSmall"":1,""CanBig"":0,""Seaweed"":2}",50.0,100.0,0.0,5.0,8.16496580927726,9.574271077563381,2.0,2.0,5.0,1.4093052682861202,0.0,50.0,"{""FishSmall"":1,""FishBig"":1,""CanSmall"":1,""CanBig"":0,""Seaweed"":0}","{""FishSmall"":1,""FishBig"":2,""CanSmall"":0,""CanBig"":0,""Seaweed"":0}",1.0,941.2,1.0,2.0,2.0,2.0,2.0,2.0,2.0,2.0,2.0,2.0,2.0,2.0,2.0,2.0,100.0,6,0.8387096774193549
6487966.0,10.0,127.0,Male,1.0,10-12,3.0,1.0,trial_7,,0.0,0.0,,1816.0,4230.0,1367.0,"{""FishSmall"":1,""FishBig"":0,""CanSmall"":1,""CanBig"":1,""Seaweed"":3}","{""FishSmall"":1,""FishBig"":3,""CanSmall"":0,""CanBig"":0,""Seaweed"":2}",100.0,100.0,-3.3333333333333335,11.666666666666666,9.428090415820634,8.975274678557506,3.0,2.0,15.0,-0.45281573726312807,-1.0,0.0,"{""FishSmall"":1,""FishBig"":1,""CanSmall"":1,""CanBig"":0,""Seaweed"":0}","{""FishSmall"":1,""FishBig"":2,""CanSmall"":0,""CanBig"":0,""Seaweed"":0}",1.0,941.2,1.0,2.0,2.0,2.0,2.0,2.0,2.0,2.0,2.0,2.0,2.0,2.0,2.0,2.0,100.0,7,0.8387096774193549
6487966.0,10.0,127.0,Male,1.0,10-12,3.0,0.0,trial_8,,1.0,,,2025.0,2697.0,,"{""FishSmall"":0,""FishBig"":0,""CanSmall"":4,""CanBig"":1,""Seaweed"":1}","{""FishSmall"":2,""FishBig"":1,""CanSmall"":1,""CanBig"":0,""Seaweed"":2}",50.0,50.0,-10.0,5.0,5.773502691896258,9.574271077563381,1.0,2.0,15.0,3.800768385667123,1.0,0.0,"{""FishSmall"":1,""FishBig"":0,""CanSmall"":2,""CanBig"":0,""Seaweed"":0}","{""FishSmall"":2,""FishBig"":1,""CanSmall"":0,""CanBig"":0,""Seaweed"":0}",1.0,941.2,1.0,2.0,2.0,2.0,2.0,2.0,2.0,2.0,2.0,2.0,2.0,2.0,2.0,2.0,100.0,8,0.8387096774193549
6487966.0,10.0,127.0,Male,1.0,10-12,3.0,0.0,trial_9,,1.0,,,2389.0,3204.0,,"{""FishSmall"":1,""FishBig"":0,""CanSmall"":3,""CanBig"":0,""Seaweed"":2}","{""FishSmall"":2,""FishBig"":0,""CanSmall"":2,""CanBig"":0,""Seaweed"":2}",100.0,0.0,-3.3333333333333335,0.0,7.453559924999299,8.16496580927726,2.0,2.0,3.3333333333333335,0.711405884277962,0.0,-100.0,"{""FishSmall"":1,""FishBig"":0,""CanSmall"":2,""CanBig"":0,""Seaweed"":0}","{""FishSmall"":1,""FishBig"":1,""CanSmall"":1,""CanBig"":0,""Seaweed"":0}",1.0,941.2,1.0,2.0,2.0,2.0,2.0,2.0,2.0,2.0,2.0,2.0,2.0,2.0,2.0,2.0,100.0,9,0.8387096774193549
6487966.0,10.0,127.0,Male,1.0,10-12,3.0,1.0,trial_10,,,0.0,,907.0,,2093.0,"{""FishSmall"":2,""FishBig"":0,""CanSmall"":2,""CanBig"":0,""Seaweed"":2}","{""FishSmall"":1,""FishBig"":2,""CanSmall"":0,""CanBig"":0,""Seaweed"":3}",50.0,50.0,0.0,8.333333333333334,8.16496580927726,8.975274678557506,2.0,3.0,8.333333333333334,0.8103088692802451,1.0,0.0,"{""FishSmall"":1,""FishBig"":0,""CanSmall"":1,""CanBig"":1,""Seaweed"":0}","{""FishSmall"":1,""FishBig"":1,""CanSmall"":1,""CanBig"":0,""Seaweed"":0}",1.0,941.2,1.0,2.0,2.0,2.0,2.0,2.0,2.0,2.0,2.0,2.0,2.0,2.0,2.0,2.0,100.0,10,0.8387096774193549
6487966.0,10.0,127.0,Male,1.0,10-12,3.0,,catch_1,0.0,,,3745.0,,,,"{""FishSmall"":4,""FishBig"":2,""CanSmall"":0,""CanBig"":0,""Seaweed"":0}","{""FishSmall"":4,""FishBig"":2,""CanSmall"":0,""CanBig"":0,""Seaweed"":0}",0.0,0.0,,,,,,,,,,,"{""FishSmall"":1,""FishBig"":2,""CanSmall"":0,""CanBig"":0,""Seaweed"":0}","{""FishSmall"":1,""FishBig"":2,""CanSmall"":0,""CanBig"":0,""Seaweed"":0}",1.0,941.2,1.0,2.0,2.0,2.0,2.0,2.0,2.0,2.0,2.0,2.0,2.0,2.0,2.0,2.0,100.0,,0.8387096774193549
6487966.0,10.0,127.0,Male,1.0,10-12,3.0,1.0,trial_11,,,0.0,,3925.0,,1158.0,"{""FishSmall"":0,""FishBig"":0,""CanSmall"":4,""CanBig"":1,""Seaweed"":1}","{""FishSmall"":4,""FishBig"":0,""CanSmall"":1,""CanBig"":0,""Seaweed"":1}",50.0,100.0,-10.0,5.0,5.773502691896258,7.637626158259733,1.0,1.0,15.0,1.8641234663634751,0.0,50.0,"{""FishSmall"":1,""FishBig"":0,""CanSmall"":2,""CanBig"":0,""Seaweed"":0}","{""FishSmall"":2,""FishBig"":0,""CanSmall"":0,""CanBig"":1,""Seaweed"":0}",1.0,941.2,1.0,2.0,2.0,2.0,2.0,2.0,2.0,2.0,2.0,2.0,2.0,2.0,2.0,2.0,100.0,11,0.8387096774193549
6487966.0,10.0,127.0,Male,1.0,10-12,3.0,0.0,trial_12,,1.0,0.0,,799.0,1208.0,4590.0,"{""FishSmall"":1,""FishBig"":0,""CanSmall"":3,""CanBig"":1,""Seaweed"":1}","{""FishSmall"":2,""FishBig"":0,""CanSmall"":3,""CanBig"":0,""Seaweed"":1}",100.0,50.0,-6.666666666666667,-1.6666666666666667,9.428090415820632,8.975274678557506,1.0,1.0,5.0,-0.4528157372631263,0.0,-50.0,"{""FishSmall"":0,""FishBig"":0,""CanSmall"":2,""CanBig"":1,""Seaweed"":0}","{""FishSmall"":1,""FishBig"":1,""CanSmall"":1,""CanBig"":0,""Seaweed"":0}",1.0,941.2,1.0,2.0,2.0,2.0,2.0,2.0,2.0,2.0,2.0,2.0,2.0,2.0,2.0,2.0,100.0,12,0.8387096774193549
6487966.0,10.0,127.0,Male,1.0,10-12,3.0,1.0,trial_13,,,,,1974.0,,,"{""FishSmall"":2,""FishBig"":0,""CanSmall"":1,""CanBig"":0,""Seaweed"":3}","{""FishSmall"":1,""FishBig"":0,""CanSmall"":2,""CanBig"":0,""Seaweed"":3}",0.0,50.0,1.6666666666666667,-1.6666666666666667,6.871842709362768,6.871842709362768,3.0,3.0,-3.3333333333333335,0.0,0.0,50.0,"{""FishSmall"":2,""FishBig"":0,""CanSmall"":1,""CanBig"":0,""Seaweed"":0}","{""FishSmall"":1,""FishBig"":0,""CanSmall"":1,""CanBig"":1,""Seaweed"":0}",1.0,941.2,1.0,2.0,2.0,2.0,2.0,2.0,2.0,2.0,2.0,2.0,2.0,2.0,2.0,2.0,100.0,13,0.8387096774193549
6487966.0,10.0,127.0,Male,1.0,10-12,3.0,1.0,trial_14,,0.0,1.0,,3143.0,1382.0,985.0,"{""FishSmall"":1,""FishBig"":0,""CanSmall"":1,""CanBig"":1,""Seaweed"":3}","{""FishSmall"":0,""FishBig"":0,""CanSmall"":1,""CanBig"":3,""Seaweed"":2}",100.0,100.0,-3.3333333333333335,-11.666666666666666,9.428090415820634,8.975274678557506,3.0,2.0,-8.333333333333332,-0.45281573726312807,-1.0,0.0,"{""FishSmall"":1,""FishBig"":0,""CanSmall"":2,""CanBig"":0,""Seaweed"":0}","{""FishSmall"":0,""FishBig"":0,""CanSmall"":1,""CanBig"":2,""Seaweed"":0}",1.0,941.2,1.0,2.0,2.0,2.0,2.0,2.0,2.0,2.0,2.0,2.0,2.0,2.0,2.0,2.0,100.0,14,0.8387096774193549
6487966.0,10.0,127.0,Male,1.0,10-12,3.0,0.0,trial_15,,1.0,,,1098.0,1411.0,,"{""FishSmall"":0,""FishBig"":0,""CanSmall"":2,""CanBig"":3,""Seaweed"":1}","{""FishSmall"":4,""FishBig"":0,""CanSmall"":0,""CanBig"":0,""Seaweed"":2}",100.0,50.0,-13.333333333333334,6.666666666666667,7.453559924999299,4.714045207910317,1.0,2.0,20.0,-2.7395147170889818,1.0,-50.0,"{""FishSmall"":0,""FishBig"":0,""CanSmall"":1,""CanBig"":2,""Seaweed"":0}","{""FishSmall"":3,""FishBig"":0,""CanSmall"":0,""CanBig"":0,""Seaweed"":0}",1.0,941.2,1.0,2.0,2.0,2.0,2.0,2.0,2.0,2.0,2.0,2.0,2.0,2.0,2.0,2.0,100.0,15,0.8387096774193549
6487966.0,10.0,127.0,Male,1.0,10-12,3.0,1.0,trial_16,,1.0,,,3686.0,1953.0,,"{""FishSmall"":0,""FishBig"":0,""CanSmall"":2,""CanBig"":4,""Seaweed"":0}","{""FishSmall"":3,""FishBig"":0,""CanSmall"":2,""CanBig"":0,""Seaweed"":1}",50.0,50.0,-16.666666666666668,1.6666666666666667,4.714045207910316,8.975274678557506,0.0,1.0,18.333333333333336,4.26122947064719,1.0,0.0,"{""FishSmall"":0,""FishBig"":0,""CanSmall"":1,""CanBig"":2,""Seaweed"":0}","{""FishSmall"":1,""FishBig"":0,""CanSmall"":2,""CanBig"":0,""Seaweed"":0}",1.0,941.2,1.0,2.0,2.0,2.0,2.0,2.0,2.0,2.0,2.0,2.0,2.0,2.0,2.0,2.0,100.0,16,0.8387096774193549
6487966.0,10.0,127.0,Male,1.0,10-12,3.0,0.0,trial_17,,1.0,1.0,,4577.0,1691.0,2254.0,"{""FishSmall"":2,""FishBig"":1,""CanSmall"":0,""CanBig"":0,""Seaweed"":3}","{""FishSmall"":0,""FishBig"":0,""CanSmall"":2,""CanBig"":4,""Seaweed"":0}",100.0,100.0,6.666666666666667,-16.666666666666668,7.453559924999299,4.714045207910316,3.0,0.0,-23.333333333333336,-2.7395147170889826,-3.0,0.0,"{""FishSmall"":0,""FishBig"":1,""CanSmall"":0,""CanBig"":2,""Seaweed"":0}","{""FishSmall"":0,""FishBig"":0,""CanSmall"":1,""CanBig"":2,""Seaweed"":0}",1.0,941.2,1.0,2.0,2.0,2.0,2.0,2.0,2.0,2.0,2.0,2.0,2.0,2.0,2.0,2.0,100.0,17,0.8387096774193549
6487966.0,10.0,127.0,Male,1.0,10-12,3.0,1.0,trial_18,,,1.0,,1158.0,,1073.0,"{""FishSmall"":0,""FishBig"":0,""CanSmall"":3,""CanBig"":2,""Seaweed"":1}","{""FishSmall"":0,""FishBig"":0,""CanSmall"":2,""CanBig"":1,""Seaweed"":3}",50.0,100.0,-11.666666666666666,-6.666666666666667,6.871842709362768,7.453559924999299,1.0,3.0,4.999999999999999,0.5817172156365311,2.0,50.0,"{""FishSmall"":0,""FishBig"":0,""CanSmall"":2,""CanBig"":1,""Seaweed"":0}","{""FishSmall"":0,""FishBig"":0,""CanSmall"":1,""CanBig"":2,""Seaweed"":0}",1.0,941.2,1.0,2.0,2.0,2.0,2.0,2.0,2.0,2.0,2.0,2.0,2.0,2.0,2.0,2.0,100.0,18,0.8387096774193549
6487966.0,10.0,127.0,Male,1.0,10-12,3.0,1.0,trial_19,,,0.0,,2504.0,,1594.0,"{""FishSmall"":2,""FishBig"":3,""CanSmall"":0,""CanBig"":0,""Seaweed"":1}","{""FishSmall"":2,""FishBig"":1,""CanSmall"":1,""CanBig"":0,""Seaweed"":2}",0.0,50.0,13.333333333333334,5.0,7.453559924999299,9.574271077563381,1.0,2.0,-8.333333333333334,2.1207111525640823,1.0,50.0,"{""FishSmall"":2,""FishBig"":1,""CanSmall"":0,""CanBig"":0,""Seaweed"":0}","{""FishSmall"":2,""FishBig"":0,""CanSmall"":1,""CanBig"":0,""Seaweed"":0}",1.0,941.2,1.0,2.0,2.0,2.0,2.0,2.0,2.0,2.0,2.0,2.0,2.0,2.0,2.0,2.0,100.0,19,0.8387096774193549
6487966.0,10.0,127.0,Male,1.0,10-12,3.0,1.0,trial_20,,0.0,,,2020.0,1719.0,,"{""FishSmall"":3,""FishBig"":0,""CanSmall"":2,""CanBig"":0,""Seaweed"":1}","{""FishSmall"":4,""FishBig"":0,""CanSmall"":0,""CanBig"":0,""Seaweed"":2}",100.0,50.0,1.6666666666666667,6.666666666666667,8.975274678557506,4.714045207910317,1.0,2.0,5.0,-4.261229470647189,1.0,-50.0,"{""FishSmall"":2,""FishBig"":0,""CanSmall"":0,""CanBig"":1,""Seaweed"":0}","{""FishSmall"":2,""FishBig"":1,""CanSmall"":0,""CanBig"":0,""Seaweed"":0}",1.0,941.2,1.0,2.0,2.0,2.0,2.0,2.0,2.0,2.0,2.0,2.0,2.0,2.0,2.0,2.0,100.0,20,0.8387096774193549
6487966.0,10.0,127.0,Male,1.0,10-12,3.0,,catch_2,1.0,,,1965.0,,,,"{""FishSmall"":0,""FishBig"":0,""CanSmall"":3,""CanBig"":3,""Seaweed"":0}","{""FishSmall"":0,""FishBig"":0,""CanSmall"":3,""CanBig"":3,""Seaweed"":0}",0.0,0.0,,,,,,,,,,,"{""FishSmall"":0,""FishBig"":0,""CanSmall"":3,""CanBig"":0,""Seaweed"":0}","{""FishSmall"":0,""FishBig"":0,""CanSmall"":2,""CanBig"":1,""Seaweed"":0}",1.0,941.2,1.0,2.0,2.0,2.0,2.0,2.0,2.0,2.0,2.0,2.0,2.0,2.0,2.0,2.0,100.0,,0.8387096774193549
6487966.0,10.0,127.0,Male,1.0,10-12,3.0,0.0,trial_21,,,,,3882.0,,,"{""FishSmall"":4,""FishBig"":1,""CanSmall"":1,""CanBig"":0,""Seaweed"":0}","{""FishSmall"":1,""FishBig"":1,""CanSmall"":1,""CanBig"":0,""Seaweed"":3}",50.0,0.0,8.333333333333334,3.3333333333333335,8.975274678557506,9.428090415820634,0.0,3.0,-5.0,0.45281573726312807,3.0,-50.0,"{""FishSmall"":2,""FishBig"":0,""CanSmall"":1,""CanBig"":0,""Seaweed"":0}","{""FishSmall"":0,""FishBig"":1,""CanSmall"":2,""CanBig"":0,""Seaweed"":0}",1.0,941.2,1.0,2.0,2.0,2.0,2.0,2.0,2.0,2.0,2.0,2.0,2.0,2.0,2.0,2.0,100.0,21,0.8387096774193549
6487966.0,10.0,127.0,Male,1.0,10-12,3.0,0.0,trial_22,,,,,894.0,,,"{""FishSmall"":3,""FishBig"":1,""CanSmall"":1,""CanBig"":0,""Seaweed"":1}","{""FishSmall"":3,""FishBig"":1,""CanSmall"":0,""CanBig"":0,""Seaweed"":2}",50.0,0.0,6.666666666666667,8.333333333333334,9.428090415820634,6.871842709362768,1.0,2.0,1.666666666666667,-2.5562477064578664,1.0,-50.0,"{""FishSmall"":2,""FishBig"":1,""CanSmall"":0,""CanBig"":0,""Seaweed"":0}","{""FishSmall"":1,""FishBig"":2,""CanSmall"":0,""CanBig"":0,""Seaweed"":0}",1.0,941.2,1.0,2.0,2.0,2.0,2.0,2.0,2.0,2.0,2.0,2.0,2.0,2.0,2.0,2.0,100.0,22,0.8387096774193549
6487966.0,10.0,127.0,Male,1.0,10-12,3.0,0.0,trial_23,,,,,2532.0,,,"{""FishSmall"":4,""FishBig"":1,""CanSmall"":0,""CanBig"":0,""Seaweed"":1}","{""FishSmall"":4,""FishBig"":1,""CanSmall"":1,""CanBig"":0,""Seaweed"":0}",50.0,0.0,10.0,8.333333333333334,5.773502691896258,8.975274678557506,1.0,0.0,-1.666666666666666,3.2017719866612477,-1.0,-50.0,"{""FishSmall"":3,""FishBig"":0,""CanSmall"":0,""CanBig"":0,""Seaweed"":0}","{""FishSmall"":1,""FishBig"":1,""CanSmall"":1,""CanBig"":0,""Seaweed"":0}",1.0,941.2,1.0,2.0,2.0,2.0,2.0,2.0,2.0,2.0,2.0,2.0,2.0,2.0,2.0,2.0,100.0,23,0.8387096774193549
6487966.0,10.0,127.0,Male,1.0,10-12,3.0,1.0,trial_24,,,,,4553.0,,,"{""FishSmall"":2,""FishBig"":1,""CanSmall"":1,""CanBig"":0,""Seaweed"":2}","{""FishSmall"":2,""FishBig"":2,""CanSmall"":0,""CanBig"":0,""Seaweed"":2}",0.0,0.0,5.0,10.0,9.574271077563381,8.16496580927726,2.0,2.0,5.0,-1.4093052682861202,0.0,0.0,"{""FishSmall"":1,""FishBig"":1,""CanSmall"":1,""CanBig"":0,""Seaweed"":0}","{""FishSmall"":1,""FishBig"":1,""CanSmall"":0,""CanBig"":1,""Seaweed"":0}",1.0,941.2,1.0,2.0,2.0,2.0,2.0,2.0,2.0,2.0,2.0,2.0,2.0,2.0,2.0,2.0,100.0,24,0.8387096774193549
6487966.0,10.0,127.0,Male,1.0,10-12,3.0,1.0,trial_25,,,,,1363.0,,,"{""FishSmall"":4,""FishBig"":1,""CanSmall"":1,""CanBig"":0,""Seaweed"":0}","{""FishSmall"":1,""FishBig"":0,""CanSmall"":2,""CanBig"":1,""Seaweed"":2}",0.0,0.0,8.333333333333334,-5.0,8.975274678557506,9.574271077563381,0.0,2.0,-13.333333333333334,0.5989963990058751,2.0,0.0,"{""FishSmall"":1,""FishBig"":1,""CanSmall"":1,""CanBig"":0,""Seaweed"":0}","{""FishSmall"":1,""FishBig"":0,""CanSmall"":2,""CanBig"":0,""Seaweed"":0}",1.0,941.2,1.0,2.0,2.0,2.0,2.0,2.0,2.0,2.0,2.0,2.0,2.0,2.0,2.0,2.0,100.0,25,0.8387096774193549
6487966.0,10.0,127.0,Male,1.0,10-12,3.0,1.0,trial_26,,0.0,,,713.0,4122.0,,"{""FishSmall"":2,""FishBig"":0,""CanSmall"":2,""CanBig"":0,""Seaweed"":2}","{""FishSmall"":3,""FishBig"":0,""CanSmall"":1,""CanBig"":0,""Seaweed"":2}",50.0,50.0,0.0,3.3333333333333335,8.16496580927726,7.453559924999298,2.0,2.0,3.3333333333333335,-0.7114058842779629,0.0,0.0,"{""FishSmall"":1,""FishBig"":0,""CanSmall"":1,""CanBig"":1,""Seaweed"":0}","{""FishSmall"":2,""FishBig"":0,""CanSmall"":1,""CanBig"":0,""Seaweed"":0}",1.0,941.2,1.0,2.0,2.0,2.0,2.0,2.0,2.0,2.0,2.0,2.0,2.0,2.0,2.0,2.0,100.0,26,0.8387096774193549
6487966.0,10.0,127.0,Male,1.0,10-12,3.0,0.0,trial_27,,0.0,1.0,,1798.0,1652.0,2907.0,"{""FishSmall"":4,""FishBig"":1,""CanSmall"":1,""CanBig"":0,""Seaweed"":0}","{""FishSmall"":1,""FishBig"":0,""CanSmall"":4,""CanBig"":1,""Seaweed"":0}",100.0,50.0,8.333333333333334,-8.333333333333334,8.975274678557506,8.975274678557506,0.0,0.0,-16.666666666666668,0.0,0.0,-50.0,"{""FishSmall"":3,""FishBig"":0,""CanSmall"":0,""CanBig"":0,""Seaweed"":0}","{""FishSmall"":0,""FishBig"":0,""CanSmall"":3,""CanBig"":0,""Seaweed"":0}",1.0,941.2,1.0,2.0,2.0,2.0,2.0,2.0,2.0,2.0,2.0,2.0,2.0,2.0,2.0,2.0,100.0,27,0.8387096774193549
6487966.0,10.0,127.0,Male,1.0,10-12,3.0,1.0,trial_28,,,1.0,,1672.0,,1332.0,"{""FishSmall"":0,""FishBig"":0,""CanSmall"":3,""CanBig"":0,""Seaweed"":3}","{""FishSmall"":1,""FishBig"":0,""CanSmall"":4,""CanBig"":0,""Seaweed"":1}",0.0,100.0,-5.0,-5.0,5.0,7.637626158259733,3.0,1.0,0.0,2.6376261582597333,-2.0,100.0,"{""FishSmall"":0,""FishBig"":0,""CanSmall"":2,""CanBig"":1,""Seaweed"":0}","{""FishSmall"":0,""FishBig"":0,""CanSmall"":3,""CanBig"":0,""Seaweed"":0}",1.0,941.2,1.0,2.0,2.0,2.0,2.0,2.0,2.0,2.0,2.0,2.0,2.0,2.0,2.0,2.0,100.0,28,0.8387096774193549
6487966.0,10.0,127.0,Male,1.0,10-12,3.0,1.0,trial_29,,,0.0,,811.0,,2272.0,"{""FishSmall"":2,""FishBig"":1,""CanSmall"":1,""CanBig"":0,""Seaweed"":2}","{""FishSmall"":0,""FishBig"":0,""CanSmall"":4,""CanBig"":1,""Seaweed"":1}",0.0,100.0,5.0,-10.0,9.574271077563381,5.773502691896258,2.0,1.0,-15.0,-3.800768385667123,-1.0,100.0,"{""FishSmall"":2,""FishBig"":0,""CanSmall"":0,""CanBig"":1,""Seaweed"":0}","{""FishSmall"":0,""FishBig"":1,""CanSmall"":2,""CanBig"":0,""Seaweed"":0}",1.0,941.2,1.0,2.0,2.0,2.0,2.0,2.0,2.0,2.0,2.0,2.0,2.0,2.0,2.0,2.0,100.0,29,0.8387096774193549
6487966.0,10.0,127.0,Male,1.0,10-12,3.0,0.0,trial_30,,0.0,,,3208.0,1034.0,,"{""FishSmall"":2,""FishBig"":1,""CanSmall"":0,""CanBig"":0,""Seaweed"":3}","{""FishSmall"":1,""FishBig"":1,""CanSmall"":1,""CanBig"":0,""Seaweed"":3}",50.0,50.0,6.666666666666667,3.3333333333333335,7.453559924999299,9.428090415820634,3.0,3.0,-3.3333333333333335,1.9745304908213352,0.0,0.0,"{""FishSmall"":1,""FishBig"":1,""CanSmall"":1,""CanBig"":0,""Seaweed"":0}","{""FishSmall"":2,""FishBig"":0,""CanSmall"":1,""CanBig"":0,""Seaweed"":0}",1.0,941.2,1.0,2.0,2.0,2.0,2.0,2.0,2.0,2.0,2.0,2.0,2.0,2.0,2.0,2.0,100.0,30,0.8387096774193549
6491208.0,11.0,134.0,Male,1.0,10-12,3.0,0.0,trial_1,,0.0,,,4214.10000000149,7208.800000000745,,"{""FishSmall"":3,""FishBig"":2,""CanSmall"":0,""CanBig"":0,""Seaweed"":1}","{""FishSmall"":1,""FishBig"":0,""CanSmall"":3,""CanBig"":1,""Seaweed"":1}",50.0,0.0,11.666666666666666,-6.666666666666667,6.871842709362768,9.428090415820632,1.0,1.0,-18.333333333333332,2.5562477064578646,0.0,-50.0,"{""FishSmall"":1,""FishBig"":2,""CanSmall"":0,""CanBig"":0,""Seaweed"":0}","{""FishSmall"":1,""FishBig"":0,""CanSmall"":2,""CanBig"":0,""Seaweed"":0}",0.8,940.5,0.9615384615384616,2.0,2.0,2.0,2.0,2.0,2.0,2.0,2.0,2.0,2.0,1.0,2.0,2.0,100.0,1,0.7
6491208.0,11.0,134.0,Male,1.0,10-12,3.0,1.0,trial_2,,1.0,0.0,,5167.39999999851,3484.199999999255,3853.20000000298,"{""FishSmall"":0,""FishBig"":0,""CanSmall"":1,""CanBig"":2,""Seaweed"":3}","{""FishSmall"":1,""FishBig"":1,""CanSmall"":1,""CanBig"":0,""Seaweed"":3}",100.0,50.0,-8.333333333333334,3.3333333333333335,8.975274678557506,9.428090415820634,3.0,3.0,11.666666666666668,0.45281573726312807,0.0,-50.0,"{""FishSmall"":0,""FishBig"":0,""CanSmall"":0,""CanBig"":3,""Seaweed"":0}","{""FishSmall"":2,""FishBig"":0,""CanSmall"":0,""CanBig"":1,""Seaweed"":0}",0.8,940.5,0.9615384615384616,2.0,2.0,2.0,2.0,2.0,2.0,2.0,2.0,2.0,2.0,1.0,2.0,2.0,100.0,2,0.7
6491208.0,11.0,134.0,Male,1.0,10-12,3.0,0.0,trial_3,,0.0,,,4574.300000000745,2188.89999999851,,"{""FishSmall"":2,""FishBig"":0,""CanSmall"":1,""CanBig"":0,""Seaweed"":3}","{""FishSmall"":2,""FishBig"":0,""CanSmall"":1,""CanBig"":0,""Seaweed"":3}",100.0,0.0,1.6666666666666667,1.6666666666666667,6.871842709362768,6.871842709362768,3.0,3.0,0.0,0.0,0.0,-100.0,"{""FishSmall"":2,""FishBig"":0,""CanSmall"":0,""CanBig"":1,""Seaweed"":0}","{""FishSmall"":1,""FishBig"":0,""CanSmall"":1,""CanBig"":1,""Seaweed"":0}",0.8,940.5,0.9615384615384616,2.0,2.0,2.0,2.0,2.0,2.0,2.0,2.0,2.0,2.0,1.0,2.0,2.0,100.0,3,0.7
6491208.0,11.0,134.0,Male,1.0,10-12,3.0,1.0,trial_4,,1.0,0.0,,3041.599999997765,3585.300000000745,984.6999999992548,"{""FishSmall"":0,""FishBig"":0,""CanSmall"":4,""CanBig"":1,""Seaweed"":1}","{""FishSmall"":3,""FishBig"":2,""CanSmall"":0,""CanBig"":0,""Seaweed"":1}",50.0,100.0,-10.0,11.666666666666666,5.773502691896258,6.871842709362768,1.0,1.0,21.666666666666664,1.0983400174665094,0.0,50.0,"{""FishSmall"":1,""FishBig"":0,""CanSmall"":1,""CanBig"":1,""Seaweed"":0}","{""FishSmall"":1,""FishBig"":2,""CanSmall"":0,""CanBig"":0,""Seaweed"":0}",0.8,940.5,0.9615384615384616,2.0,2.0,2.0,2.0,2.0,2.0,2.0,2.0,2.0,2.0,1.0,2.0,2.0,100.0,4,0.7
6491208.0,11.0,134.0,Male,1.0,10-12,3.0,0.0,trial_5,,,,,3502.800000000745,,,"{""FishSmall"":0,""FishBig"":0,""CanSmall"":1,""CanBig"":3,""Seaweed"":2}","{""FishSmall"":1,""FishBig"":3,""CanSmall"":0,""CanBig"":0,""Seaweed"":2}",0.0,50.0,-11.666666666666666,11.666666666666666,8.975274678557506,8.975274678557506,2.0,2.0,23.333333333333332,0.0,0.0,50.0,"{""FishSmall"":0,""FishBig"":0,""CanSmall"":0,""CanBig"":3,""Seaweed"":0}","{""FishSmall"":2,""FishBig"":1,""CanSmall"":0,""CanBig"":0,""Seaweed"":0}",0.8,940.5,0.9615384615384616,2.0,2.0,2.0,2.0,2.0,2.0,2.0,2.0,2.0,2.0,1.0,2.0,2.0,100.0,5,0.7
6491208.0,11.0,134.0,Male,1.0,10-12,3.0,1.0,trial_6,,0.0,0.0,,1379.7000000029802,4135.5,1562.4000000022352,"{""FishSmall"":1,""FishBig"":0,""CanSmall"":1,""CanBig"":1,""Seaweed"":3}","{""FishSmall"":0,""FishBig"":0,""CanSmall"":1,""CanBig"":4,""Seaweed"":1}",100.0,0.0,-3.3333333333333335,-15.0,9.428090415820634,7.637626158259733,3.0,1.0,-11.666666666666666,-1.7904642575609007,-2.0,-100.0,"{""FishSmall"":0,""FishBig"":2,""CanSmall"":1,""CanBig"":0,""Seaweed"":0}","{""FishSmall"":0,""FishBig"":0,""CanSmall"":1,""CanBig"":2,""Seaweed"":0}",0.8,940.5,0.9615384615384616,2.0,2.0,2.0,2.0,2.0,2.0,2.0,2.0,2.0,2.0,1.0,2.0,2.0,100.0,6,0.7
6491208.0,11.0,134.0,Male,1.0,10-12,3.0,1.0,trial_7,,0.0,1.0,,5593.699999999255,3796.5,1301.60000000149,"{""FishSmall"":0,""FishBig"":0,""CanSmall"":2,""CanBig"":3,""Seaweed"":1}","{""FishSmall"":1,""FishBig"":1,""CanSmall"":1,""CanBig"":0,""Seaweed"":3}",100.0,50.0,-13.333333333333334,3.3333333333333335,7.453559924999299,9.428090415820634,1.0,3.0,16.666666666666668,1.9745304908213352,2.0,-50.0,"{""FishSmall"":0,""FishBig"":0,""CanSmall"":2,""CanBig"":1,""Seaweed"":0}","{""FishSmall"":1,""FishBig"":0,""CanSmall"":2,""CanBig"":0,""Seaweed"":0}",0.8,940.5,0.9615384615384616,2.0,2.0,2.0,2.0,2.0,2.0,2.0,2.0,2.0,2.0,1.0,2.0,2.0,100.0,7,0.7
6491208.0,11.0,134.0,Male,1.0,10-12,3.0,0.0,trial_8,,0.0,,,4322.099999997765,6452.10000000149,,"{""FishSmall"":1,""FishBig"":0,""CanSmall"":1,""CanBig"":1,""Seaweed"":3}","{""FishSmall"":2,""FishBig"":0,""CanSmall"":1,""CanBig"":0,""Seaweed"":3}",50.0,0.0,-3.3333333333333335,1.6666666666666667,9.428090415820634,6.871842709362768,3.0,3.0,5.0,-2.5562477064578664,0.0,-50.0,"{""FishSmall"":1,""FishBig"":1,""CanSmall"":1,""CanBig"":0,""Seaweed"":0}","{""FishSmall"":1,""FishBig"":0,""CanSmall"":1,""CanBig"":1,""Seaweed"":0}",0.8,940.5,0.9615384615384616,2.0,2.0,2.0,2.0,2.0,2.0,2.0,2.0,2.0,2.0,1.0,2.0,2.0,100.0,8,0.7
6491208.0,11.0,134.0,Male,1.0,10-12,3.0,1.0,trial_9,,1.0,1.0,,4851.10000000149,4159.5,1514.800000000745,"{""FishSmall"":0,""FishBig"":0,""CanSmall"":2,""CanBig"":3,""Seaweed"":1}","{""FishSmall"":2,""FishBig"":1,""CanSmall"":1,""CanBig"":0,""Seaweed"":2}",100.0,50.0,-13.333333333333334,5.0,7.453559924999299,9.574271077563381,1.0,2.0,18.333333333333336,2.1207111525640823,1.0,-50.0,"{""FishSmall"":0,""FishBig"":0,""CanSmall"":1,""CanBig"":2,""Seaweed"":0}","{""FishSmall"":1,""FishBig"":2,""CanSmall"":0,""CanBig"":0,""Seaweed"":0}",0.8,940.5,0.9615384615384616,2.0,2.0,2.0,2.0,2.0,2.0,2.0,2.0,2.0,2.0,1.0,2.0,2.0,100.0,9,0.7
6491208.0,11.0,134.0,Male,1.0,10-12,3.0,1.0,trial_10,,0.0,,,4759.800000000745,3548.099999997765,,"{""FishSmall"":3,""FishBig"":2,""CanSmall"":0,""CanBig"":0,""Seaweed"":1}","{""FishSmall"":1,""FishBig"":1,""CanSmall"":1,""CanBig"":0,""Seaweed"":3}",100.0,50.0,11.666666666666666,3.3333333333333335,6.871842709362768,9.428090415820634,1.0,3.0,-8.333333333333332,2.5562477064578664,2.0,-50.0,"{""FishSmall"":1,""FishBig"":2,""CanSmall"":0,""CanBig"":0,""Seaweed"":0}","{""FishSmall"":1,""FishBig"":1,""CanSmall"":1,""CanBig"":0,""Seaweed"":0}",0.8,940.5,0.9615384615384616,2.0,2.0,2.0,2.0,2.0,2.0,2.0,2.0,2.0,2.0,1.0,2.0,2.0,100.0,10,0.7
6491208.0,11.0,134.0,Male,1.0,10-12,3.0,,catch_1,0.0,,,3238.0,,,,"{""FishSmall"":4,""FishBig"":2,""CanSmall"":0,""CanBig"":0,""Seaweed"":0}","{""FishSmall"":4,""FishBig"":2,""CanSmall"":0,""CanBig"":0,""Seaweed"":0}",0.0,0.0,,,,,,,,,,,"{""FishSmall"":2,""FishBig"":1,""CanSmall"":0,""CanBig"":0,""Seaweed"":0}","{""FishSmall"":2,""FishBig"":1,""CanSmall"":0,""CanBig"":0,""Seaweed"":0}",0.8,940.5,0.9615384615384616,2.0,2.0,2.0,2.0,2.0,2.0,2.0,2.0,2.0,2.0,1.0,2.0,2.0,100.0,,0.7
6491208.0,11.0,134.0,Male,1.0,10-12,3.0,0.0,trial_11,,,0.0,,1389.300000000745,,1615.0,"{""FishSmall"":0,""FishBig"":0,""CanSmall"":1,""CanBig"":2,""Seaweed"":3}","{""FishSmall"":1,""FishBig"":0,""CanSmall"":5,""CanBig"":0,""Seaweed"":0}",0.0,100.0,-8.333333333333334,-6.666666666666667,8.975274678557506,7.453559924999298,3.0,0.0,1.666666666666667,-1.521714753558208,-3.0,100.0,"{""FishSmall"":1,""FishBig"":0,""CanSmall"":1,""CanBig"":1,""Seaweed"":0}","{""FishSmall"":1,""FishBig"":0,""CanSmall"":2,""CanBig"":0,""Seaweed"":0}",0.8,940.5,0.9615384615384616,2.0,2.0,2.0,2.0,2.0,2.0,2.0,2.0,2.0,2.0,1.0,2.0,2.0,100.0,11,0.7
6491208.0,11.0,134.0,Male,1.0,10-12,3.0,0.0,trial_12,,,0.0,,2171.89999999851,,2232.300000000745,"{""FishSmall"":2,""FishBig"":0,""CanSmall"":2,""CanBig"":0,""Seaweed"":2}","{""FishSmall"":3,""FishBig"":1,""CanSmall"":1,""CanBig"":0,""Seaweed"":1}",0.0,100.0,0.0,6.666666666666667,8.16496580927726,9.428090415820634,2.0,1.0,6.666666666666667,1.2631246065433732,-1.0,100.0,"{""FishSmall"":1,""FishBig"":0,""CanSmall"":1,""CanBig"":1,""Seaweed"":0}","{""FishSmall"":1,""FishBig"":1,""CanSmall"":1,""CanBig"":0,""Seaweed"":0}",0.8,940.5,0.9615384615384616,2.0,2.0,2.0,2.0,2.0,2.0,2.0,2.0,2.0,2.0,1.0,2.0,2.0,100.0,12,0.7
6491208.0,11.0,134.0,Male,1.0,10-12,3.0,0.0,trial_13,,0.0,,,5334.39999999851,9297.39999999851,,"{""FishSmall"":2,""FishBig"":1,""CanSmall"":0,""CanBig"":0,""Seaweed"":3}","{""FishSmall"":0,""FishBig"":0,""CanSmall"":1,""CanBig"":3,""Seaweed"":2}",100.0,50.0,6.666666666666667,-11.666666666666666,7.453559924999299,8.975274678557506,3.0,2.0,-18.333333333333332,1.5217147535582072,-1.0,-50.0,"{""FishSmall"":1,""FishBig"":1,""CanSmall"":1,""CanBig"":0,""Seaweed"":0}","{""FishSmall"":0,""FishBig"":0,""CanSmall"":1,""CanBig"":2,""Seaweed"":0}",0.8,940.5,0.9615384615384616,2.0,2.0,2.0,2.0,2.0,2.0,2.0,2.0,2.0,2.0,1.0,2.0,2.0,100.0,13,0.7
6491208.0,11.0,134.0,Male,1.0,10-12,3.0,0.0,trial_14,,,,,2072.599999997765,,,"{""FishSmall"":0,""FishBig"":0,""CanSmall"":2,""CanBig"":2,""Seaweed"":2}","{""FishSmall"":2,""FishBig"":1,""CanSmall"":0,""CanBig"":0,""Seaweed"":3}",0.0,0.0,-10.0,6.666666666666667,8.16496580927726,7.453559924999299,2.0,3.0,16.666666666666668,-0.711405884277962,1.0,0.0,"{""FishSmall"":0,""FishBig"":0,""CanSmall"":2,""CanBig"":1,""Seaweed"":0}","{""FishSmall"":0,""FishBig"":3,""CanSmall"":0,""CanBig"":0,""Seaweed"":0}",0.8,940.5,0.9615384615384616,2.0,2.0,2.0,2.0,2.0,2.0,2.0,2.0,2.0,2.0,1.0,2.0,2.0,100.0,14,0.7
6491208.0,11.0,134.0,Male,1.0,10-12,3.0,0.0,trial_15,,1.0,0.0,,5841.699999999255,1065.10000000149,4573.89999999851,"{""FishSmall"":2,""FishBig"":1,""CanSmall"":1,""CanBig"":0,""Seaweed"":2}","{""FishSmall"":0,""FishBig"":0,""CanSmall"":2,""CanBig"":3,""Seaweed"":1}",100.0,100.0,5.0,-13.333333333333334,9.574271077563381,7.453559924999299,2.0,1.0,-18.333333333333336,-2.1207111525640823,-1.0,0.0,"{""FishSmall"":2,""FishBig"":0,""CanSmall"":1,""CanBig"":0,""Seaweed"":0}","{""FishSmall"":1,""FishBig"":0,""CanSmall"":1,""CanBig"":1,""Seaweed"":0}",0.8,940.5,0.9615384615384616,2.0,2.0,2.0,2.0,2.0,2.0,2.0,2.0,2.0,2.0,1.0,2.0,2.0,100.0,15,0.7
6491208.0,11.0,134.0,Male,1.0,10-12,3.0,1.0,trial_16,,1.0,0.0,,4383.10000000149,874.0,1894.9000000022352,"{""FishSmall"":0,""FishBig"":0,""CanSmall"":1,""CanBig"":4,""Seaweed"":1}","{""FishSmall"":2,""FishBig"":1,""CanSmall"":0,""CanBig"":0,""Seaweed"":3}",100.0,100.0,-15.0,6.666666666666667,7.637626158259733,7.453559924999299,1.0,3.0,21.666666666666668,-0.1840662332604346,2.0,0.0,"{""FishSmall"":0,""FishBig"":0,""CanSmall"":0,""CanBig"":3,""Seaweed"":0}","{""FishSmall"":1,""FishBig"":0,""CanSmall"":1,""CanBig"":1,""Seaweed"":0}",0.8,940.5,0.9615384615384616,2.0,2.0,2.0,2.0,2.0,2.0,2.0,2.0,2.0,2.0,1.0,2.0,2.0,100.0,16,0.7
6491208.0,11.0,134.0,Male,1.0,10-12,3.0,0.0,trial_17,,0.0,0.0,,2780.900000002235,2178.5,8397.5,"{""FishSmall"":2,""FishBig"":2,""CanSmall"":0,""CanBig"":0,""Seaweed"":2}","{""FishSmall"":0,""FishBig"":0,""CanSmall"":2,""CanBig"":3,""Seaweed"":1}",50.0,50.0,10.0,-13.333333333333334,8.16496580927726,7.453559924999299,2.0,1.0,-23.333333333333336,-0.711405884277962,-1.0,0.0,"{""FishSmall"":2,""FishBig"":0,""CanSmall"":1,""CanBig"":0,""Seaweed"":0}","{""FishSmall"":0,""FishBig"":0,""CanSmall"":1,""CanBig"":2,""Seaweed"":0}",0.8,940.5,0.9615384615384616,2.0,2.0,2.0,2.0,2.0,2.0,2.0,2.0,2.0,2.0,1.0,2.0,2.0,100.0,17,0.7
6491208.0,11.0,134.0,Male,1.0,10-12,3.0,1.0,trial_18,,,,,1093.10000000149,,,"{""FishSmall"":3,""FishBig"":0,""CanSmall"":2,""CanBig"":0,""Seaweed"":1}","{""FishSmall"":1,""FishBig"":0,""CanSmall"":2,""CanBig"":1,""Seaweed"":2}",0.0,50.0,1.6666666666666667,-5.0,8.975274678557506,9.574271077563381,1.0,2.0,-6.666666666666667,0.5989963990058751,1.0,50.0,"{""FishSmall"":2,""FishBig"":0,""CanSmall"":1,""CanBig"":0,""Seaweed"":0}","{""FishSmall"":0,""FishBig"":0,""CanSmall"":1,""CanBig"":2,""Seaweed"":0}",0.8,940.5,0.9615384615384616,2.0,2.0,2.0,2.0,2.0,2.0,2.0,2.0,2.0,2.0,1.0,2.0,2.0,100.0,18,0.7
6491208.0,11.0,134.0,Male,1.0,10-12,3.0,0.0,trial_19,,0.0,0.0,,1340.89999999851,2246.5,2031.5,"{""FishSmall"":3,""FishBig"":2,""CanSmall"":0,""CanBig"":0,""Seaweed"":1}","{""FishSmall"":2,""FishBig"":1,""CanSmall"":1,""CanBig"":0,""Seaweed"":2}",100.0,50.0,11.666666666666666,5.0,6.871842709362768,9.574271077563381,1.0,2.0,-6.666666666666666,2.7024283682006134,1.0,-50.0,"{""FishSmall"":2,""FishBig"":1,""CanSmall"":0,""CanBig"":0,""Seaweed"":0}","{""FishSmall"":1,""FishBig"":1,""CanSmall"":0,""CanBig"":1,""Seaweed"":0}",0.8,940.5,0.9615384615384616,2.0,2.0,2.0,2.0,2.0,2.0,2.0,2.0,2.0,2.0,1.0,2.0,2.0,100.0,19,0.7
6491208.0,11.0,134.0,Male,1.0,10-12,3.0,1.0,trial_20,,1.0,0.0,,1591.199999999255,1501.7999999970198,1762.10000000149,"{""FishSmall"":0,""FishBig"":0,""CanSmall"":2,""CanBig"":3,""Seaweed"":1}","{""FishSmall"":1,""FishBig"":3,""CanSmall"":0,""CanBig"":0,""Seaweed"":2}",100.0,100.0,-13.333333333333334,11.666666666666666,7.453559924999299,8.975274678557506,1.0,2.0,25.0,1.5217147535582072,1.0,0.0,"{""FishSmall"":0,""FishBig"":0,""CanSmall"":2,""CanBig"":1,""Seaweed"":0}","{""FishSmall"":1,""FishBig"":2,""CanSmall"":0,""CanBig"":0,""Seaweed"":0}",0.8,940.5,0.9615384615384616,2.0,2.0,2.0,2.0,2.0,2.0,2.0,2.0,2.0,2.0,1.0,2.0,2.0,100.0,20,0.7
6491208.0,11.0,134.0,Male,1.0,10-12,3.0,,catch_2,1.0,,,1831.300000000745,,,,"{""FishSmall"":0,""FishBig"":0,""CanSmall"":3,""CanBig"":3,""Seaweed"":0}","{""FishSmall"":0,""FishBig"":0,""CanSmall"":3,""CanBig"":3,""Seaweed"":0}",0.0,0.0,,,,,,,,,,,"{""FishSmall"":0,""FishBig"":0,""CanSmall"":2,""CanBig"":1,""Seaweed"":0}","{""FishSmall"":0,""FishBig"":0,""CanSmall"":1,""CanBig"":2,""Seaweed"":0}",0.8,940.5,0.9615384615384616,2.0,2.0,2.0,2.0,2.0,2.0,2.0,2.0,2.0,2.0,1.0,2.0,2.0,100.0,,0.7
6491208.0,11.0,134.0,Male,1.0,10-12,3.0,0.0,trial_21,,1.0,,,1358.89999999851,2461.20000000298,,"{""FishSmall"":0,""FishBig"":0,""CanSmall"":2,""CanBig"":2,""Seaweed"":2}","{""FishSmall"":2,""FishBig"":2,""CanSmall"":0,""CanBig"":0,""Seaweed"":2}",50.0,0.0,-10.0,10.0,8.16496580927726,8.16496580927726,2.0,2.0,20.0,0.0,0.0,-50.0,"{""FishSmall"":0,""FishBig"":1,""CanSmall"":1,""CanBig"":1,""Seaweed"":0}","{""FishSmall"":0,""FishBig"":2,""CanSmall"":0,""CanBig"":1,""Seaweed"":0}",0.8,940.5,0.9615384615384616,2.0,2.0,2.0,2.0,2.0,2.0,2.0,2.0,2.0,2.0,1.0,2.0,2.0,100.0,21,0.7
6491208.0,11.0,134.0,Male,1.0,10-12,3.0,0.0,trial_22,,1.0,,,1619.0999999977648,2471.89999999851,,"{""FishSmall"":0,""FishBig"":0,""CanSmall"":3,""CanBig"":1,""Seaweed"":2}","{""FishSmall"":3,""FishBig"":2,""CanSmall"":0,""CanBig"":0,""Seaweed"":1}",100.0,0.0,-8.333333333333334,11.666666666666666,6.871842709362768,6.871842709362768,2.0,1.0,20.0,0.0,-1.0,-100.0,"{""FishSmall"":0,""FishBig"":0,""CanSmall"":1,""CanBig"":2,""Seaweed"":0}","{""FishSmall"":1,""FishBig"":1,""CanSmall"":1,""CanBig"":0,""Seaweed"":0}",0.8,940.5,0.9615384615384616,2.0,2.0,2.0,2.0,2.0,2.0,2.0,2.0,2.0,2.0,1.0,2.0,2.0,100.0,22,0.7
6491208.0,11.0,134.0,Male,1.0,10-12,3.0,1.0,trial_23,,0.0,,,1736.4000000022352,2468.800000000745,,"{""FishSmall"":1,""FishBig"":1,""CanSmall"":1,""CanBig"":0,""Seaweed"":3}","{""FishSmall"":1,""FishBig"":2,""CanSmall"":0,""CanBig"":0,""Seaweed"":3}",50.0,0.0,3.3333333333333335,8.333333333333334,9.428090415820634,8.975274678557506,3.0,3.0,5.0,-0.45281573726312807,0.0,-50.0,"{""FishSmall"":1,""FishBig"":0,""CanSmall"":2,""CanBig"":0,""Seaweed"":0}","{""FishSmall"":0,""FishBig"":1,""CanSmall"":1,""CanBig"":1,""Seaweed"":0}",0.8,940.5,0.9615384615384616,2.0,2.0,2.0,2.0,2.0,2.0,2.0,2.0,2.0,2.0,1.0,2.0,2.0,100.0,23,0.7
6491208.0,11.0,134.0,Male,1.0,10-12,3.0,0.0,trial_24,,0.0,1.0,,10351.099999997765,5146.89999999851,2414.800000000745,"{""FishSmall"":1,""FishBig"":0,""CanSmall"":1,""CanBig"":1,""Seaweed"":3}","{""FishSmall"":1,""FishBig"":0,""CanSmall"":2,""CanBig"":1,""Seaweed"":2}",50.0,0.0,-3.3333333333333335,-5.0,9.428090415820634,9.574271077563381,3.0,2.0,-1.6666666666666665,0.14618066174274702,-1.0,-50.0,"{""FishSmall"":1,""FishBig"":0,""CanSmall"":1,""CanBig"":1,""Seaweed"":0}","{""FishSmall"":1,""FishBig"":0,""CanSmall"":2,""CanBig"":0,""Seaweed"":0}",0.8,940.5,0.9615384615384616,2.0,2.0,2.0,2.0,2.0,2.0,2.0,2.0,2.0,2.0,1.0,2.0,2.0,100.0,24,0.7
6491208.0,11.0,134.0,Male,1.0,10-12,3.0,0.0,trial_25,,0.0,0.0,,732.9000000022352,1750.5,1412.5,"{""FishSmall"":3,""FishBig"":1,""CanSmall"":1,""CanBig"":0,""Seaweed"":1}","{""FishSmall"":3,""FishBig"":3,""CanSmall"":0,""CanBig"":0,""Seaweed"":0}",0.0,100.0,6.666666666666667,15.0,9.428090415820634,5.0,1.0,0.0,8.333333333333332,-4.428090415820634,-1.0,100.0,"{""FishSmall"":1,""FishBig"":0,""CanSmall"":1,""CanBig"":1,""Seaweed"":0}","{""FishSmall"":2,""FishBig"":1,""CanSmall"":0,""CanBig"":0,""Seaweed"":0}",0.8,940.5,0.9615384615384616,2.0,2.0,2.0,2.0,2.0,2.0,2.0,2.0,2.0,2.0,1.0,2.0,2.0,100.0,25,0.7
6491208.0,11.0,134.0,Male,1.0,10-12,3.0,0.0,trial_26,,0.0,,,1418.89999999851,5429.60000000149,,"{""FishSmall"":2,""FishBig"":2,""CanSmall"":0,""CanBig"":0,""Seaweed"":2}","{""FishSmall"":2,""FishBig"":0,""CanSmall"":2,""CanBig"":0,""Seaweed"":2}",100.0,0.0,10.0,0.0,8.16496580927726,8.16496580927726,2.0,2.0,-10.0,0.0,0.0,-100.0,"{""FishSmall"":1,""FishBig"":1,""CanSmall"":0,""CanBig"":1,""Seaweed"":0}","{""FishSmall"":1,""FishBig"":1,""CanSmall"":1,""CanBig"":0,""Seaweed"":0}",0.8,940.5,0.9615384615384616,2.0,2.0,2.0,2.0,2.0,2.0,2.0,2.0,2.0,2.0,1.0,2.0,2.0,100.0,26,0.7
6491208.0,11.0,134.0,Male,1.0,10-12,3.0,1.0,trial_27,,,,,4670.60000000149,,,"{""FishSmall"":1,""FishBig"":1,""CanSmall"":1,""CanBig"":0,""Seaweed"":3}","{""FishSmall"":0,""FishBig"":0,""CanSmall"":2,""CanBig"":2,""Seaweed"":2}",50.0,0.0,3.3333333333333335,-10.0,9.428090415820634,8.16496580927726,3.0,2.0,-13.333333333333334,-1.2631246065433732,-1.0,-50.0,"{""FishSmall"":0,""FishBig"":2,""CanSmall"":1,""CanBig"":0,""Seaweed"":0}","{""FishSmall"":1,""FishBig"":0,""CanSmall"":1,""CanBig"":1,""Seaweed"":0}",0.8,940.5,0.9615384615384616,2.0,2.0,2.0,2.0,2.0,2.0,2.0,2.0,2.0,2.0,1.0,2.0,2.0,100.0,27,0.7
6491208.0,11.0,134.0,Male,1.0,10-12,3.0,0.0,trial_28,,0.0,0.0,,957.3000000007452,1212.199999999255,2438.89999999851,"{""FishSmall"":1,""FishBig"":1,""CanSmall"":1,""CanBig"":0,""Seaweed"":3}","{""FishSmall"":2,""FishBig"":1,""CanSmall"":1,""CanBig"":0,""Seaweed"":2}",50.0,0.0,3.3333333333333335,5.0,9.428090415820634,9.574271077563381,3.0,2.0,1.6666666666666665,0.14618066174274702,-1.0,-50.0,"{""FishSmall"":2,""FishBig"":0,""CanSmall"":1,""CanBig"":0,""Seaweed"":0}","{""FishSmall"":1,""FishBig"":1,""CanSmall"":1,""CanBig"":0,""Seaweed"":0}",0.8,940.5,0.9615384615384616,2.0,2.0,2.0,2.0,2.0,2.0,2.0,2.0,2.0,2.0,1.0,2.0,2.0,100.0,28,0.7
6491208.0,11.0,134.0,Male,1.0,10-12,3.0,0.0,trial_29,,0.0,,,3175.199999999255,1176.2000000029802,,"{""FishSmall"":3,""FishBig"":0,""CanSmall"":0,""CanBig"":0,""Seaweed"":3}","{""FishSmall"":0,""FishBig"":0,""CanSmall"":4,""CanBig"":1,""Seaweed"":1}",50.0,0.0,5.0,-10.0,5.0,5.773502691896258,3.0,1.0,-15.0,0.7735026918962582,-2.0,-50.0,"{""FishSmall"":2,""FishBig"":1,""CanSmall"":0,""CanBig"":0,""Seaweed"":0}","{""FishSmall"":0,""FishBig"":0,""CanSmall"":3,""CanBig"":0,""Seaweed"":0}",0.8,940.5,0.9615384615384616,2.0,2.0,2.0,2.0,2.0,2.0,2.0,2.0,2.0,2.0,1.0,2.0,2.0,100.0,29,0.7
6491208.0,11.0,134.0,Male,1.0,10-12,3.0,0.0,trial_30,,0.0,0.0,,1202.300000000745,1220.0,2032.9000000022352,"{""FishSmall"":1,""FishBig"":0,""CanSmall"":2,""CanBig"":1,""Seaweed"":2}","{""FishSmall"":0,""FishBig"":0,""CanSmall"":2,""CanBig"":2,""Seaweed"":2}",100.0,100.0,-5.0,-10.0,9.574271077563381,8.16496580927726,2.0,2.0,-5.0,-1.4093052682861202,0.0,0.0,"{""FishSmall"":2,""FishBig"":0,""CanSmall"":0,""CanBig"":1,""Seaweed"":0}","{""FishSmall"":0,""FishBig"":0,""CanSmall"":1,""CanBig"":2,""Seaweed"":0}",0.8,940.5,0.9615384615384616,2.0,2.0,2.0,2.0,2.0,2.0,2.0,2.0,2.0,2.0,1.0,2.0,2.0,100.0,30,0.7
6493626.0,8.0,104.0,Male,1.0,8-9,2.0,0.0,trial_1,,0.0,,,4441.700000017881,8643.09999999404,,"{""FishSmall"":2,""FishBig"":1,""CanSmall"":1,""CanBig"":0,""Seaweed"":2}","{""FishSmall"":0,""FishBig"":0,""CanSmall"":4,""CanBig"":1,""Seaweed"":1}",100.0,0.0,5.0,-10.0,9.574271077563381,5.773502691896258,2.0,1.0,-15.0,-3.800768385667123,-1.0,-100.0,"{""FishSmall"":3,""FishBig"":0,""CanSmall"":0,""CanBig"":0,""Seaweed"":0}","{""FishSmall"":0,""FishBig"":0,""CanSmall"":1,""CanBig"":2,""Seaweed"":0}",1.0,4242.120000004768,1.0,2.0,2.0,2.0,2.0,2.0,2.0,2.0,2.0,2.0,2.0,2.0,2.0,2.0,100.0,1,0.9714285714285714
6493626.0,8.0,104.0,Male,1.0,8-9,2.0,1.0,trial_2,,,0.0,,3969.300000011921,,5046.9000000059605,"{""FishSmall"":3,""FishBig"":1,""CanSmall"":0,""CanBig"":0,""Seaweed"":2}","{""FishSmall"":3,""FishBig"":2,""CanSmall"":0,""CanBig"":0,""Seaweed"":1}",0.0,100.0,8.333333333333334,11.666666666666666,6.871842709362768,6.871842709362768,2.0,1.0,3.333333333333332,0.0,-1.0,100.0,"{""FishSmall"":1,""FishBig"":0,""CanSmall"":0,""CanBig"":2,""Seaweed"":0}","{""FishSmall"":2,""FishBig"":1,""CanSmall"":0,""CanBig"":0,""Seaweed"":0}",1.0,4242.120000004768,1.0,2.0,2.0,2.0,2.0,2.0,2.0,2.0,2.0,2.0,2.0,2.0,2.0,2.0,100.0,2,0.9714285714285714
6493626.0,8.0,104.0,Male,1.0,8-9,2.0,1.0,trial_3,,1.0,0.0,,7876.5,4553.5,2244.7000000178814,"{""FishSmall"":1,""FishBig"":0,""CanSmall"":2,""CanBig"":1,""Seaweed"":2}","{""FishSmall"":3,""FishBig"":1,""CanSmall"":0,""CanBig"":0,""Seaweed"":2}",100.0,100.0,-5.0,8.333333333333334,9.574271077563381,6.871842709362768,2.0,2.0,13.333333333333334,-2.7024283682006134,0.0,0.0,"{""FishSmall"":0,""FishBig"":0,""CanSmall"":2,""CanBig"":1,""Seaweed"":0}","{""FishSmall"":2,""FishBig"":1,""CanSmall"":0,""CanBig"":0,""Seaweed"":0}",1.0,4242.120000004768,1.0,2.0,2.0,2.0,2.0,2.0,2.0,2.0,2.0,2.0,2.0,2.0,2.0,2.0,100.0,3,0.9714285714285714
6493626.0,8.0,104.0,Male,1.0,8-9,2.0,1.0,trial_4,,0.0,0.0,,8715.5,7096.4000000059605,16702.0,"{""FishSmall"":3,""FishBig"":2,""CanSmall"":0,""CanBig"":0,""Seaweed"":1}","{""FishSmall"":2,""FishBig"":3,""CanSmall"":0,""CanBig"":0,""Seaweed"":1}",100.0,100.0,11.666666666666666,13.333333333333334,6.871842709362768,7.453559924999299,1.0,1.0,1.6666666666666679,0.5817172156365311,0.0,0.0,"{""FishSmall"":1,""FishBig"":2,""CanSmall"":0,""CanBig"":0,""Seaweed"":0}","{""FishSmall"":1,""FishBig"":2,""CanSmall"":0,""CanBig"":0,""Seaweed"":0}",1.0,4242.120000004768,1.0,2.0,2.0,2.0,2.0,2.0,2.0,2.0,2.0,2.0,2.0,2.0,2.0,2.0,100.0,4,0.9714285714285714
6493626.0,8.0,104.0,Male,1.0,8-9,2.0,0.0,trial_5,,1.0,,,8279.09999999404,5824.4000000059605,,"{""FishSmall"":2,""FishBig"":0,""CanSmall"":3,""CanBig"":0,""Seaweed"":1}","{""FishSmall"":0,""FishBig"":0,""CanSmall"":2,""CanBig"":4,""Seaweed"":0}",100.0,0.0,-1.6666666666666667,-16.666666666666668,8.975274678557506,4.714045207910316,1.0,0.0,-15.000000000000002,-4.26122947064719,-1.0,-100.0,"{""FishSmall"":1,""FishBig"":0,""CanSmall"":1,""CanBig"":1,""Seaweed"":0}","{""FishSmall"":0,""FishBig"":0,""CanSmall"":1,""CanBig"":2,""Seaweed"":0}",1.0,4242.120000004768,1.0,2.0,2.0,2.0,2.0,2.0,2.0,2.0,2.0,2.0,2.0,2.0,2.0,2.0,100.0,5,0.9714285714285714
6493626.0,8.0,104.0,Male,1.0,8-9,2.0,1.0,trial_6,,,,,2367.2999999821186,,,"{""FishSmall"":0,""FishBig"":0,""CanSmall"":3,""CanBig"":1,""Seaweed"":2}","{""FishSmall"":3,""FishBig"":0,""CanSmall"":2,""CanBig"":0,""Seaweed"":1}",0.0,50.0,-8.333333333333334,1.6666666666666667,6.871842709362768,8.975274678557506,2.0,1.0,10.0,2.1034319691947383,-1.0,50.0,"{""FishSmall"":1,""FishBig"":0,""CanSmall"":1,""CanBig"":1,""Seaweed"":0}","{""FishSmall"":1,""FishBig"":0,""CanSmall"":1,""CanBig"":1,""Seaweed"":0}",1.0,4242.120000004768,1.0,2.0,2.0,2.0,2.0,2.0,2.0,2.0,2.0,2.0,2.0,2.0,2.0,2.0,100.0,6,0.9714285714285714
6493626.0,8.0,104.0,Male,1.0,8-9,2.0,1.0,trial_7,,1.0,1.0,,9503.69999998808,7818.0,9644.30000001192,"{""FishSmall"":1,""FishBig"":0,""CanSmall"":3,""CanBig"":0,""Seaweed"":2}","{""FishSmall"":3,""FishBig"":0,""CanSmall"":1,""CanBig"":0,""Seaweed"":2}",50.0,50.0,-3.3333333333333335,3.3333333333333335,7.453559924999299,7.453559924999298,2.0,2.0,6.666666666666667,-8.881784197001252e-16,0.0,0.0,"{""FishSmall"":0,""FishBig"":1,""CanSmall"":2,""CanBig"":0,""Seaweed"":0}","{""FishSmall"":1,""FishBig"":0,""CanSmall"":1,""CanBig"":1,""Seaweed"":0}",1.0,4242.120000004768,1.0,2.0,2.0,2.0,2.0,2.0,2.0,2.0,2.0,2.0,2.0,2.0,2.0,2.0,100.0,7,0.9714285714285714
6493626.0,8.0,104.0,Male,1.0,8-9,2.0,0.0,trial_8,,0.0,1.0,,33903.0,2526.4000000059605,5123.799999982119,"{""FishSmall"":1,""FishBig"":3,""CanSmall"":0,""CanBig"":0,""Seaweed"":2}","{""FishSmall"":1,""FishBig"":0,""CanSmall"":2,""CanBig"":0,""Seaweed"":3}",100.0,50.0,11.666666666666666,-1.6666666666666667,8.975274678557506,6.871842709362768,2.0,3.0,-13.333333333333332,-2.1034319691947383,1.0,-50.0,"{""FishSmall"":1,""FishBig"":2,""CanSmall"":0,""CanBig"":0,""Seaweed"":0}","{""FishSmall"":0,""FishBig"":2,""CanSmall"":1,""CanBig"":0,""Seaweed"":0}",1.0,4242.120000004768,1.0,2.0,2.0,2.0,2.0,2.0,2.0,2.0,2.0,2.0,2.0,2.0,2.0,2.0,100.0,8,0.9714285714285714
6493626.0,8.0,104.0,Male,1.0,8-9,2.0,0.0,trial_9,,,1.0,,32745.5,,5701.09999999404,"{""FishSmall"":1,""FishBig"":0,""CanSmall"":4,""CanBig"":0,""Seaweed"":1}","{""FishSmall"":0,""FishBig"":0,""CanSmall"":4,""CanBig"":2,""Seaweed"":0}",0.0,50.0,-5.0,-13.333333333333334,7.637626158259733,4.714045207910316,1.0,0.0,-8.333333333333334,-2.9235809503494172,-1.0,50.0,"{""FishSmall"":0,""FishBig"":1,""CanSmall"":2,""CanBig"":0,""Seaweed"":0}","{""FishSmall"":0,""FishBig"":0,""CanSmall"":2,""CanBig"":1,""Seaweed"":0}",1.0,4242.120000004768,1.0,2.0,2.0,2.0,2.0,2.0,2.0,2.0,2.0,2.0,2.0,2.0,2.0,2.0,100.0,9,0.9714285714285714
6493626.0,8.0,104.0,Male,1.0,8-9,2.0,0.0,trial_10,,,1.0,,15661.30000001192,,7330.0,"{""FishSmall"":3,""FishBig"":0,""CanSmall"":1,""CanBig"":0,""Seaweed"":2}","{""FishSmall"":1,""FishBig"":0,""CanSmall"":2,""CanBig"":0,""Seaweed"":3}",50.0,50.0,3.3333333333333335,-1.6666666666666667,7.453559924999298,6.871842709362768,2.0,3.0,-5.0,-0.5817172156365302,1.0,0.0,"{""FishSmall"":2,""FishBig"":0,""CanSmall"":1,""CanBig"":0,""Seaweed"":0}","{""FishSmall"":1,""FishBig"":0,""CanSmall"":2,""CanBig"":0,""Seaweed"":0}",1.0,4242.120000004768,1.0,2.0,2.0,2.0,2.0,2.0,2.0,2.0,2.0,2.0,2.0,2.0,2.0,2.0,100.0,10,0.9714285714285714
6493626.0,8.0,104.0,Male,1.0,8-9,2.0,,catch_1,0.0,,,3016.0,,,,"{""FishSmall"":4,""FishBig"":2,""CanSmall"":0,""CanBig"":0,""Seaweed"":0}","{""FishSmall"":4,""FishBig"":2,""CanSmall"":0,""CanBig"":0,""Seaweed"":0}",0.0,0.0,,,,,,,,,,,"{""FishSmall"":2,""FishBig"":1,""CanSmall"":0,""CanBig"":0,""Seaweed"":0}","{""FishSmall"":3,""FishBig"":0,""CanSmall"":0,""CanBig"":0,""Seaweed"":0}",1.0,4242.120000004768,1.0,2.0,2.0,2.0,2.0,2.0,2.0,2.0,2.0,2.0,2.0,2.0,2.0,2.0,100.0,,0.9714285714285714
6493626.0,8.0,104.0,Male,1.0,8-9,2.0,0.0,trial_11,,0.0,,,17220.40000000596,11100.20000001788,,"{""FishSmall"":2,""FishBig"":0,""CanSmall"":1,""CanBig"":0,""Seaweed"":3}","{""FishSmall"":1,""FishBig"":0,""CanSmall"":5,""CanBig"":0,""Seaweed"":0}",100.0,0.0,1.6666666666666667,-6.666666666666667,6.871842709362768,7.453559924999298,3.0,0.0,-8.333333333333334,0.5817172156365302,-3.0,-100.0,"{""FishSmall"":2,""FishBig"":0,""CanSmall"":1,""CanBig"":0,""Seaweed"":0}","{""FishSmall"":1,""FishBig"":0,""CanSmall"":2,""CanBig"":0,""Seaweed"":0}",1.0,4242.120000004768,1.0,2.0,2.0,2.0,2.0,2.0,2.0,2.0,2.0,2.0,2.0,2.0,2.0,2.0,100.0,11,0.9714285714285714
6493626.0,8.0,104.0,Male,1.0,8-9,2.0,1.0,trial_12,,1.0,,,19992.5,7488.5,,"{""FishSmall"":1,""FishBig"":0,""CanSmall"":2,""CanBig"":0,""Seaweed"":3}","{""FishSmall"":1,""FishBig"":2,""CanSmall"":0,""CanBig"":0,""Seaweed"":3}",50.0,0.0,-1.6666666666666667,8.333333333333334,6.871842709362768,8.975274678557506,3.0,3.0,10.0,2.1034319691947383,0.0,-50.0,"{""FishSmall"":1,""FishBig"":0,""CanSmall"":1,""CanBig"":1,""Seaweed"":0}","{""FishSmall"":1,""FishBig"":2,""CanSmall"":0,""CanBig"":0,""Seaweed"":0}",1.0,4242.120000004768,1.0,2.0,2.0,2.0,2.0,2.0,2.0,2.0,2.0,2.0,2.0,2.0,2.0,2.0,100.0,12,0.9714285714285714
6493626.0,8.0,104.0,Male,1.0,8-9,2.0,1.0,trial_13,,,,,10350.899999976158,,,"{""FishSmall"":1,""FishBig"":2,""CanSmall"":0,""CanBig"":0,""Seaweed"":3}","{""FishSmall"":4,""FishBig"":1,""CanSmall"":1,""CanBig"":0,""Seaweed"":0}",0.0,0.0,8.333333333333334,8.333333333333334,8.975274678557506,8.975274678557506,3.0,0.0,0.0,0.0,-3.0,0.0,"{""FishSmall"":1,""FishBig"":1,""CanSmall"":0,""CanBig"":1,""Seaweed"":0}","{""FishSmall"":2,""FishBig"":0,""CanSmall"":1,""CanBig"":0,""Seaweed"":0}",1.0,4242.120000004768,1.0,2.0,2.0,2.0,2.0,2.0,2.0,2.0,2.0,2.0,2.0,2.0,2.0,2.0,100.0,13,0.9714285714285714
6493626.0,8.0,104.0,Male,1.0,8-9,2.0,1.0,trial_14,,1.0,,,7817.399999976158,5343.799999982119,,"{""FishSmall"":0,""FishBig"":0,""CanSmall"":3,""CanBig"":1,""Seaweed"":2}","{""FishSmall"":1,""FishBig"":0,""CanSmall"":1,""CanBig"":1,""Seaweed"":3}",50.0,0.0,-8.333333333333334,-3.3333333333333335,6.871842709362768,9.428090415820634,2.0,3.0,5.0,2.5562477064578664,1.0,-50.0,"{""FishSmall"":0,""FishBig"":1,""CanSmall"":2,""CanBig"":0,""Seaweed"":0}","{""FishSmall"":1,""FishBig"":2,""CanSmall"":0,""CanBig"":0,""Seaweed"":0}",1.0,4242.120000004768,1.0,2.0,2.0,2.0,2.0,2.0,2.0,2.0,2.0,2.0,2.0,2.0,2.0,2.0,100.0,14,0.9714285714285714
6493626.0,8.0,104.0,Male,1.0,8-9,2.0,1.0,trial_15,,,0.0,,24728.89999997616,,2137.9000000059605,"{""FishSmall"":3,""FishBig"":0,""CanSmall"":2,""CanBig"":0,""Seaweed"":1}","{""FishSmall"":1,""FishBig"":3,""CanSmall"":0,""CanBig"":0,""Seaweed"":2}",0.0,0.0,1.6666666666666667,11.666666666666666,8.975274678557506,8.975274678557506,1.0,2.0,10.0,0.0,1.0,0.0,"{""FishSmall"":1,""FishBig"":0,""CanSmall"":2,""CanBig"":0,""Seaweed"":0}","{""FishSmall"":2,""FishBig"":1,""CanSmall"":0,""CanBig"":0,""Seaweed"":0}",1.0,4242.120000004768,1.0,2.0,2.0,2.0,2.0,2.0,2.0,2.0,2.0,2.0,2.0,2.0,2.0,2.0,100.0,15,0.9714285714285714
6493626.0,8.0,104.0,Male,1.0,8-9,2.0,1.0,trial_16,,1.0,0.0,,10197.5,10527.899999976158,7888.40000000596,"{""FishSmall"":0,""FishBig"":0,""CanSmall"":4,""CanBig"":0,""Seaweed"":2}","{""FishSmall"":3,""FishBig"":0,""CanSmall"":1,""CanBig"":0,""Seaweed"":2}",100.0,100.0,-6.666666666666667,3.3333333333333335,4.714045207910317,7.453559924999298,2.0,2.0,10.0,2.739514717088981,0.0,0.0,"{""FishSmall"":1,""FishBig"":0,""CanSmall"":2,""CanBig"":0,""Seaweed"":0}","{""FishSmall"":1,""FishBig"":1,""CanSmall"":1,""CanBig"":0,""Seaweed"":0}",1.0,4242.120000004768,1.0,2.0,2.0,2.0,2.0,2.0,2.0,2.0,2.0,2.0,2.0,2.0,2.0,2.0,100.0,16,0.9714285714285714
6493626.0,8.0,104.0,Male,1.0,8-9,2.0,1.0,trial_17,,,1.0,,7766.299999982119,,1672.199999988079,"{""FishSmall"":1,""FishBig"":0,""CanSmall"":2,""CanBig"":0,""Seaweed"":3}","{""FishSmall"":2,""FishBig"":0,""CanSmall"":1,""CanBig"":0,""Seaweed"":3}",0.0,100.0,-1.6666666666666667,1.6666666666666667,6.871842709362768,6.871842709362768,3.0,3.0,3.3333333333333335,0.0,0.0,100.0,"{""FishSmall"":2,""FishBig"":0,""CanSmall"":1,""CanBig"":0,""Seaweed"":0}","{""FishSmall"":1,""FishBig"":0,""CanSmall"":2,""CanBig"":0,""Seaweed"":0}",1.0,4242.120000004768,1.0,2.0,2.0,2.0,2.0,2.0,2.0,2.0,2.0,2.0,2.0,2.0,2.0,2.0,100.0,17,0.9714285714285714
6493626.0,8.0,104.0,Male,1.0,8-9,2.0,1.0,trial_18,,,0.0,,8425.90000000596,,5342.200000017881,"{""FishSmall"":1,""FishBig"":2,""CanSmall"":0,""CanBig"":0,""Seaweed"":3}","{""FishSmall"":1,""FishBig"":2,""CanSmall"":0,""CanBig"":0,""Seaweed"":3}",50.0,100.0,8.333333333333334,8.333333333333334,8.975274678557506,8.975274678557506,3.0,3.0,0.0,0.0,0.0,50.0,"{""FishSmall"":2,""FishBig"":0,""CanSmall"":1,""CanBig"":0,""Seaweed"":0}","{""FishSmall"":1,""FishBig"":2,""CanSmall"":0,""CanBig"":0,""Seaweed"":0}",1.0,4242.120000004768,1.0,2.0,2.0,2.0,2.0,2.0,2.0,2.0,2.0,2.0,2.0,2.0,2.0,2.0,100.0,18,0.9714285714285714
6493626.0,8.0,104.0,Male,1.0,8-9,2.0,0.0,trial_19,,1.0,,,7598.40000000596,3871.199999988079,,"{""FishSmall"":1,""FishBig"":0,""CanSmall"":3,""CanBig"":0,""Seaweed"":2}","{""FishSmall"":4,""FishBig"":2,""CanSmall"":0,""CanBig"":0,""Seaweed"":0}",100.0,0.0,-3.3333333333333335,13.333333333333334,7.453559924999299,4.714045207910316,2.0,0.0,16.666666666666668,-2.7395147170889826,-2.0,-100.0,"{""FishSmall"":0,""FishBig"":1,""CanSmall"":1,""CanBig"":1,""Seaweed"":0}","{""FishSmall"":1,""FishBig"":2,""CanSmall"":0,""CanBig"":0,""Seaweed"":0}",1.0,4242.120000004768,1.0,2.0,2.0,2.0,2.0,2.0,2.0,2.0,2.0,2.0,2.0,2.0,2.0,2.0,100.0,19,0.9714285714285714
6493626.0,8.0,104.0,Male,1.0,8-9,2.0,1.0,trial_20,,1.0,1.0,,7401.199999988079,2242.800000011921,2437.5,"{""FishSmall"":0,""FishBig"":0,""CanSmall"":2,""CanBig"":4,""Seaweed"":0}","{""FishSmall"":0,""FishBig"":0,""CanSmall"":5,""CanBig"":0,""Seaweed"":1}",100.0,50.0,-16.666666666666668,-8.333333333333334,4.714045207910316,3.72677996249965,0.0,1.0,8.333333333333334,-0.9872652454106663,1.0,-50.0,"{""FishSmall"":0,""FishBig"":0,""CanSmall"":1,""CanBig"":2,""Seaweed"":0}","{""FishSmall"":0,""FishBig"":0,""CanSmall"":3,""CanBig"":0,""Seaweed"":0}",1.0,4242.120000004768,1.0,2.0,2.0,2.0,2.0,2.0,2.0,2.0,2.0,2.0,2.0,2.0,2.0,2.0,100.0,20,0.9714285714285714
6493626.0,8.0,104.0,Male,1.0,8-9,2.0,,catch_2,1.0,,,3129.5,,,,"{""FishSmall"":0,""FishBig"":0,""CanSmall"":3,""CanBig"":3,""Seaweed"":0}","{""FishSmall"":0,""FishBig"":0,""CanSmall"":3,""CanBig"":3,""Seaweed"":0}",0.0,0.0,,,,,,,,,,,"{""FishSmall"":0,""FishBig"":0,""CanSmall"":0,""CanBig"":3,""Seaweed"":0}","{""FishSmall"":0,""FishBig"":0,""CanSmall"":2,""CanBig"":1,""Seaweed"":0}",1.0,4242.120000004768,1.0,2.0,2.0,2.0,2.0,2.0,2.0,2.0,2.0,2.0,2.0,2.0,2.0,2.0,100.0,,0.9714285714285714
6493626.0,8.0,104.0,Male,1.0,8-9,2.0,0.0,trial_21,,,,,3658.199999988079,,,"{""FishSmall"":0,""FishBig"":0,""CanSmall"":1,""CanBig"":2,""Seaweed"":3}","{""FishSmall"":0,""FishBig"":4,""CanSmall"":0,""CanBig"":0,""Seaweed"":2}",0.0,0.0,-8.333333333333334,13.333333333333334,8.975274678557506,9.428090415820634,3.0,2.0,21.666666666666668,0.45281573726312807,-1.0,0.0,"{""FishSmall"":1,""FishBig"":0,""CanSmall"":0,""CanBig"":2,""Seaweed"":0}","{""FishSmall"":0,""FishBig"":3,""CanSmall"":0,""CanBig"":0,""Seaweed"":0}",1.0,4242.120000004768,1.0,2.0,2.0,2.0,2.0,2.0,2.0,2.0,2.0,2.0,2.0,2.0,2.0,2.0,100.0,21,0.9714285714285714
6493626.0,8.0,104.0,Male,1.0,8-9,2.0,0.0,trial_22,,,1.0,,6847.699999988079,,10890.59999999404,"{""FishSmall"":0,""FishBig"":0,""CanSmall"":2,""CanBig"":3,""Seaweed"":1}","{""FishSmall"":3,""FishBig"":2,""CanSmall"":0,""CanBig"":0,""Seaweed"":1}",0.0,100.0,-13.333333333333334,11.666666666666666,7.453559924999299,6.871842709362768,1.0,1.0,25.0,-0.5817172156365311,0.0,100.0,"{""FishSmall"":0,""FishBig"":0,""CanSmall"":2,""CanBig"":1,""Seaweed"":0}","{""FishSmall"":0,""FishBig"":3,""CanSmall"":0,""CanBig"":0,""Seaweed"":0}",1.0,4242.120000004768,1.0,2.0,2.0,2.0,2.0,2.0,2.0,2.0,2.0,2.0,2.0,2.0,2.0,2.0,100.0,22,0.9714285714285714
6493626.0,8.0,104.0,Male,1.0,8-9,2.0,0.0,trial_23,,,,,6686.9000000059605,,,"{""FishSmall"":3,""FishBig"":1,""CanSmall"":1,""CanBig"":0,""Seaweed"":1}","{""FishSmall"":2,""FishBig"":0,""CanSmall"":3,""CanBig"":0,""Seaweed"":1}",50.0,0.0,6.666666666666667,-1.6666666666666667,9.428090415820634,8.975274678557506,1.0,1.0,-8.333333333333334,-0.45281573726312807,0.0,-50.0,"{""FishSmall"":1,""FishBig"":1,""CanSmall"":1,""CanBig"":0,""Seaweed"":0}","{""FishSmall"":1,""FishBig"":0,""CanSmall"":2,""CanBig"":0,""Seaweed"":0}",1.0,4242.120000004768,1.0,2.0,2.0,2.0,2.0,2.0,2.0,2.0,2.0,2.0,2.0,2.0,2.0,2.0,100.0,23,0.9714285714285714
6493626.0,8.0,104.0,Male,1.0,8-9,2.0,0.0,trial_24,,,,,15692.59999999404,,,"{""FishSmall"":1,""FishBig"":0,""CanSmall"":4,""CanBig"":0,""Seaweed"":1}","{""FishSmall"":1,""FishBig"":0,""CanSmall"":1,""CanBig"":1,""Seaweed"":3}",0.0,0.0,-5.0,-3.3333333333333335,7.637626158259733,9.428090415820634,1.0,3.0,1.6666666666666665,1.7904642575609007,2.0,0.0,"{""FishSmall"":1,""FishBig"":0,""CanSmall"":2,""CanBig"":0,""Seaweed"":0}","{""FishSmall"":1,""FishBig"":1,""CanSmall"":0,""CanBig"":1,""Seaweed"":0}",1.0,4242.120000004768,1.0,2.0,2.0,2.0,2.0,2.0,2.0,2.0,2.0,2.0,2.0,2.0,2.0,2.0,100.0,24,0.9714285714285714
6493626.0,8.0,104.0,Male,1.0,8-9,2.0,0.0,trial_25,,1.0,1.0,,4292.09999999404,3275.5999999940395,4087.400000005961,"{""FishSmall"":0,""FishBig"":1,""CanSmall"":0,""CanBig"":1,""Seaweed"":4}","{""FishSmall"":1,""FishBig"":0,""CanSmall"":3,""CanBig"":1,""Seaweed"":1}",0.0,50.0,0.0,-6.666666666666667,11.547005383792516,9.428090415820632,4.0,1.0,-6.666666666666667,-2.118914967971884,-3.0,50.0,"{""FishSmall"":1,""FishBig"":0,""CanSmall"":1,""CanBig"":1,""Seaweed"":0}","{""FishSmall"":0,""FishBig"":0,""CanSmall"":2,""CanBig"":1,""Seaweed"":0}",1.0,4242.120000004768,1.0,2.0,2.0,2.0,2.0,2.0,2.0,2.0,2.0,2.0,2.0,2.0,2.0,2.0,100.0,25,0.9714285714285714
6493626.0,8.0,104.0,Male,1.0,8-9,2.0,1.0,trial_26,,,0.0,,9870.19999998808,,2450.5999999940395,"{""FishSmall"":5,""FishBig"":0,""CanSmall"":1,""CanBig"":0,""Seaweed"":0}","{""FishSmall"":2,""FishBig"":1,""CanSmall"":1,""CanBig"":0,""Seaweed"":2}",50.0,50.0,6.666666666666667,5.0,7.4535599249993,9.574271077563381,0.0,2.0,-1.666666666666667,2.1207111525640814,2.0,0.0,"{""FishSmall"":2,""FishBig"":0,""CanSmall"":1,""CanBig"":0,""Seaweed"":0}","{""FishSmall"":0,""FishBig"":2,""CanSmall"":1,""CanBig"":0,""Seaweed"":0}",1.0,4242.120000004768,1.0,2.0,2.0,2.0,2.0,2.0,2.0,2.0,2.0,2.0,2.0,2.0,2.0,2.0,100.0,26,0.9714285714285714
6493626.0,8.0,104.0,Male,1.0,8-9,2.0,1.0,trial_27,,,0.0,,9833.80000001192,,2670.5999999940395,"{""FishSmall"":1,""FishBig"":0,""CanSmall"":2,""CanBig"":1,""Seaweed"":2}","{""FishSmall"":3,""FishBig"":1,""CanSmall"":0,""CanBig"":0,""Seaweed"":2}",50.0,50.0,-5.0,8.333333333333334,9.574271077563381,6.871842709362768,2.0,2.0,13.333333333333334,-2.7024283682006134,0.0,0.0,"{""FishSmall"":2,""FishBig"":0,""CanSmall"":1,""CanBig"":0,""Seaweed"":0}","{""FishSmall"":2,""FishBig"":1,""CanSmall"":0,""CanBig"":0,""Seaweed"":0}",1.0,4242.120000004768,1.0,2.0,2.0,2.0,2.0,2.0,2.0,2.0,2.0,2.0,2.0,2.0,2.0,2.0,100.0,27,0.9714285714285714
6493626.0,8.0,104.0,Male,1.0,8-9,2.0,1.0,trial_28,,0.0,1.0,,6632.09999999404,3984.59999999404,2928.0999999940395,"{""FishSmall"":3,""FishBig"":2,""CanSmall"":0,""CanBig"":0,""Seaweed"":1}","{""FishSmall"":2,""FishBig"":1,""CanSmall"":1,""CanBig"":0,""Seaweed"":2}",100.0,50.0,11.666666666666666,5.0,6.871842709362768,9.574271077563381,1.0,2.0,-6.666666666666666,2.7024283682006134,1.0,-50.0,"{""FishSmall"":3,""FishBig"":0,""CanSmall"":0,""CanBig"":0,""Seaweed"":0}","{""FishSmall"":1,""FishBig"":0,""CanSmall"":2,""CanBig"":0,""Seaweed"":0}",1.0,4242.120000004768,1.0,2.0,2.0,2.0,2.0,2.0,2.0,2.0,2.0,2.0,2.0,2.0,2.0,2.0,100.0,28,0.9714285714285714
6493626.0,8.0,104.0,Male,1.0,8-9,2.0,1.0,trial_29,,1.0,1.0,,10244.59999999404,2865.9000000059605,2243.5,"{""FishSmall"":0,""FishBig"":0,""CanSmall"":3,""CanBig"":2,""Seaweed"":1}","{""FishSmall"":1,""FishBig"":0,""CanSmall"":3,""CanBig"":1,""Seaweed"":1}",100.0,100.0,-11.666666666666666,-6.666666666666667,6.871842709362768,9.428090415820632,1.0,1.0,4.999999999999999,2.5562477064578646,0.0,0.0,"{""FishSmall"":0,""FishBig"":0,""CanSmall"":2,""CanBig"":1,""Seaweed"":0}","{""FishSmall"":0,""FishBig"":0,""CanSmall"":2,""CanBig"":1,""Seaweed"":0}",1.0,4242.120000004768,1.0,2.0,2.0,2.0,2.0,2.0,2.0,2.0,2.0,2.0,2.0,2.0,2.0,2.0,100.0,29,0.9714285714285714
6493626.0,8.0,104.0,Male,1.0,8-9,2.0,0.0,trial_30,,0.0,1.0,,5160.899999976158,2443.199999988079,16014.90000000596,"{""FishSmall"":1,""FishBig"":1,""CanSmall"":1,""CanBig"":0,""Seaweed"":3}","{""FishSmall"":0,""FishBig"":0,""CanSmall"":4,""CanBig"":1,""Seaweed"":1}",0.0,50.0,3.3333333333333335,-10.0,9.428090415820634,5.773502691896258,3.0,1.0,-13.333333333333334,-3.654587723924376,-2.0,50.0,"{""FishSmall"":1,""FishBig"":1,""CanSmall"":1,""CanBig"":0,""Seaweed"":0}","{""FishSmall"":0,""FishBig"":0,""CanSmall"":2,""CanBig"":1,""Seaweed"":0}",1.0,4242.120000004768,1.0,2.0,2.0,2.0,2.0,2.0,2.0,2.0,2.0,2.0,2.0,2.0,2.0,2.0,100.0,30,0.9714285714285714
6493958.0,6.0,80.0,Female,2.0,6-7,1.0,1.0,trial_1,,,0.0,,8481.0,,7361.89999961853,"{""FishSmall"":0,""FishBig"":0,""CanSmall"":3,""CanBig"":2,""Seaweed"":1}","{""FishSmall"":0,""FishBig"":0,""CanSmall"":0,""CanBig"":5,""Seaweed"":1}",0.0,50.0,-11.666666666666666,-16.666666666666668,6.871842709362768,7.4535599249993,1.0,1.0,-5.000000000000002,0.581717215636532,0.0,50.0,"{""FishSmall"":0,""FishBig"":0,""CanSmall"":2,""CanBig"":1,""Seaweed"":0}","{""FishSmall"":0,""FishBig"":0,""CanSmall"":0,""CanBig"":3,""Seaweed"":0}",0.5,1669.0600000381469,0.8076923076923077,2.0,2.0,2.0,2.0,2.0,1.0,0.0,2.0,2.0,2.0,1.0,1.0,2.0,100.0,1,0.75
6493958.0,6.0,80.0,Female,2.0,6-7,1.0,0.0,trial_2,,,,,5603.5,,,"{""FishSmall"":3,""FishBig"":0,""CanSmall"":1,""CanBig"":0,""Seaweed"":2}","{""FishSmall"":1,""FishBig"":0,""CanSmall"":3,""CanBig"":1,""Seaweed"":1}",0.0,0.0,3.3333333333333335,-6.666666666666667,7.453559924999298,9.428090415820632,2.0,1.0,-10.0,1.9745304908213344,-1.0,0.0,"{""FishSmall"":1,""FishBig"":0,""CanSmall"":2,""CanBig"":0,""Seaweed"":0}","{""FishSmall"":0,""FishBig"":0,""CanSmall"":2,""CanBig"":1,""Seaweed"":0}",0.5,1669.0600000381469,0.8076923076923077,2.0,2.0,2.0,2.0,2.0,1.0,0.0,2.0,2.0,2.0,1.0,1.0,2.0,100.0,2,0.75
6493958.0,6.0,80.0,Female,2.0,6-7,1.0,0.0,trial_3,,,,,6719.200000762939,,,"{""FishSmall"":2,""FishBig"":1,""CanSmall"":0,""CanBig"":0,""Seaweed"":3}","{""FishSmall"":3,""FishBig"":1,""CanSmall"":1,""CanBig"":0,""Seaweed"":1}",50.0,0.0,6.666666666666667,6.666666666666667,7.453559924999299,9.428090415820634,3.0,1.0,0.0,1.9745304908213352,-2.0,-50.0,"{""FishSmall"":0,""FishBig"":1,""CanSmall"":1,""CanBig"":1,""Seaweed"":0}","{""FishSmall"":2,""FishBig"":0,""CanSmall"":1,""CanBig"":0,""Seaweed"":0}",0.5,1669.0600000381469,0.8076923076923077,2.0,2.0,2.0,2.0,2.0,1.0,0.0,2.0,2.0,2.0,1.0,1.0,2.0,100.0,3,0.75
6493958.0,6.0,80.0,Female,2.0,6-7,1.0,1.0,trial_4,,,,,2059.5,,,"{""FishSmall"":4,""FishBig"":1,""CanSmall"":1,""CanBig"":0,""Seaweed"":0}","{""FishSmall"":5,""FishBig"":1,""CanSmall"":0,""CanBig"":0,""Seaweed"":0}",50.0,0.0,8.333333333333334,11.666666666666666,8.975274678557506,3.72677996249965,0.0,0.0,3.333333333333332,-5.248494716057856,0.0,-50.0,"{""FishSmall"":2,""FishBig"":1,""CanSmall"":0,""CanBig"":0,""Seaweed"":0}","{""FishSmall"":2,""FishBig"":1,""CanSmall"":0,""CanBig"":0,""Seaweed"":0}",0.5,1669.0600000381469,0.8076923076923077,2.0,2.0,2.0,2.0,2.0,1.0,0.0,2.0,2.0,2.0,1.0,1.0,2.0,100.0,4,0.75
6493958.0,6.0,80.0,Female,2.0,6-7,1.0,1.0,trial_5,,,,,7542.0,,,"{""FishSmall"":1,""FishBig"":0,""CanSmall"":1,""CanBig"":1,""Seaweed"":3}","{""FishSmall"":1,""FishBig"":0,""CanSmall"":1,""CanBig"":1,""Seaweed"":3}",0.0,50.0,-3.3333333333333335,-3.3333333333333335,9.428090415820634,9.428090415820634,3.0,3.0,0.0,0.0,0.0,50.0,"{""FishSmall"":1,""FishBig"":0,""CanSmall"":1,""CanBig"":1,""Seaweed"":0}","{""FishSmall"":1,""FishBig"":1,""CanSmall"":0,""CanBig"":1,""Seaweed"":0}",0.5,1669.0600000381469,0.8076923076923077,2.0,2.0,2.0,2.0,2.0,1.0,0.0,2.0,2.0,2.0,1.0,1.0,2.0,100.0,5,0.75
6493958.0,6.0,80.0,Female,2.0,6-7,1.0,0.0,trial_6,,0.0,,,2582.8999996185303,1879.5,,"{""FishSmall"":2,""FishBig"":1,""CanSmall"":1,""CanBig"":0,""Seaweed"":2}","{""FishSmall"":3,""FishBig"":0,""CanSmall"":1,""CanBig"":0,""Seaweed"":2}",100.0,0.0,5.0,3.3333333333333335,9.574271077563381,7.453559924999298,2.0,2.0,-1.6666666666666665,-2.120711152564083,0.0,-100.0,"{""FishSmall"":1,""FishBig"":0,""CanSmall"":2,""CanBig"":0,""Seaweed"":0}","{""FishSmall"":2,""FishBig"":1,""CanSmall"":0,""CanBig"":0,""Seaweed"":0}",0.5,1669.0600000381469,0.8076923076923077,2.0,2.0,2.0,2.0,2.0,1.0,0.0,2.0,2.0,2.0,1.0,1.0,2.0,100.0,6,0.75
6493958.0,6.0,80.0,Female,2.0,6-7,1.0,0.0,trial_7,,,,,10578.89999961853,,,"{""FishSmall"":4,""FishBig"":1,""CanSmall"":0,""CanBig"":0,""Seaweed"":1}","{""FishSmall"":0,""FishBig"":0,""CanSmall"":2,""CanBig"":2,""Seaweed"":2}",50.0,0.0,10.0,-10.0,5.773502691896258,8.16496580927726,1.0,2.0,-20.0,2.3914631173810026,1.0,-50.0,"{""FishSmall"":3,""FishBig"":0,""CanSmall"":0,""CanBig"":0,""Seaweed"":0}","{""FishSmall"":0,""FishBig"":0,""CanSmall"":1,""CanBig"":2,""Seaweed"":0}",0.5,1669.0600000381469,0.8076923076923077,2.0,2.0,2.0,2.0,2.0,1.0,0.0,2.0,2.0,2.0,1.0,1.0,2.0,100.0,7,0.75
6493958.0,6.0,80.0,Female,2.0,6-7,1.0,0.0,trial_8,,0.0,,,3474.8999996185303,1698.1000003814695,,"{""FishSmall"":2,""FishBig"":1,""CanSmall"":1,""CanBig"":0,""Seaweed"":2}","{""FishSmall"":3,""FishBig"":1,""CanSmall"":0,""CanBig"":0,""Seaweed"":2}",100.0,50.0,5.0,8.333333333333334,9.574271077563381,6.871842709362768,2.0,2.0,3.333333333333334,-2.7024283682006134,0.0,-50.0,"{""FishSmall"":2,""FishBig"":1,""CanSmall"":0,""CanBig"":0,""Seaweed"":0}","{""FishSmall"":2,""FishBig"":1,""CanSmall"":0,""CanBig"":0,""Seaweed"":0}",0.5,1669.0600000381469,0.8076923076923077,2.0,2.0,2.0,2.0,2.0,1.0,0.0,2.0,2.0,2.0,1.0,1.0,2.0,100.0,8,0.75
6493958.0,6.0,80.0,Female,2.0,6-7,1.0,0.0,trial_9,,0.0,,,1653.2999992370603,1740.400001525879,,"{""FishSmall"":2,""FishBig"":3,""CanSmall"":0,""CanBig"":0,""Seaweed"":1}","{""FishSmall"":3,""FishBig"":1,""CanSmall"":0,""CanBig"":0,""Seaweed"":2}",100.0,50.0,13.333333333333334,8.333333333333334,7.453559924999299,6.871842709362768,1.0,2.0,-5.0,-0.5817172156365311,1.0,-50.0,"{""FishSmall"":1,""FishBig"":2,""CanSmall"":0,""CanBig"":0,""Seaweed"":0}","{""FishSmall"":1,""FishBig"":0,""CanSmall"":2,""CanBig"":0,""Seaweed"":0}",0.5,1669.0600000381469,0.8076923076923077,2.0,2.0,2.0,2.0,2.0,1.0,0.0,2.0,2.0,2.0,1.0,1.0,2.0,100.0,9,0.75
6493958.0,6.0,80.0,Female,2.0,6-7,1.0,1.0,trial_10,,1.0,0.0,,1987.6000003814695,7099.10000038147,2156.2999992370605,"{""FishSmall"":3,""FishBig"":0,""CanSmall"":1,""CanBig"":0,""Seaweed"":2}","{""FishSmall"":2,""FishBig"":1,""CanSmall"":1,""CanBig"":0,""Seaweed"":2}",50.0,100.0,3.3333333333333335,5.0,7.453559924999298,9.574271077563381,2.0,2.0,1.6666666666666665,2.120711152564083,0.0,50.0,"{""FishSmall"":1,""FishBig"":0,""CanSmall"":1,""CanBig"":1,""Seaweed"":0}","{""FishSmall"":1,""FishBig"":1,""CanSmall"":0,""CanBig"":1,""Seaweed"":0}",0.5,1669.0600000381469,0.8076923076923077,2.0,2.0,2.0,2.0,2.0,1.0,0.0,2.0,2.0,2.0,1.0,1.0,2.0,100.0,10,0.75
6493958.0,6.0,80.0,Female,2.0,6-7,1.0,,catch_1,0.0,,,6455.60000038147,,,,"{""FishSmall"":4,""FishBig"":2,""CanSmall"":0,""CanBig"":0,""Seaweed"":0}","{""FishSmall"":4,""FishBig"":2,""CanSmall"":0,""CanBig"":0,""Seaweed"":0}",0.0,0.0,,,,,,,,,,,"{""FishSmall"":2,""FishBig"":1,""CanSmall"":0,""CanBig"":0,""Seaweed"":0}","{""FishSmall"":2,""FishBig"":1,""CanSmall"":0,""CanBig"":0,""Seaweed"":0}",0.5,1669.0600000381469,0.8076923076923077,2.0,2.0,2.0,2.0,2.0,1.0,0.0,2.0,2.0,2.0,1.0,1.0,2.0,100.0,,0.75
6493958.0,6.0,80.0,Female,2.0,6-7,1.0,0.0,trial_11,,0.0,,,18291.39999961853,4881.0,,"{""FishSmall"":2,""FishBig"":3,""CanSmall"":0,""CanBig"":0,""Seaweed"":1}","{""FishSmall"":3,""FishBig"":1,""CanSmall"":1,""CanBig"":0,""Seaweed"":1}",50.0,0.0,13.333333333333334,6.666666666666667,7.453559924999299,9.428090415820634,1.0,1.0,-6.666666666666667,1.9745304908213352,0.0,-50.0,"{""FishSmall"":0,""FishBig"":2,""CanSmall"":1,""CanBig"":0,""Seaweed"":0}","{""FishSmall"":1,""FishBig"":1,""CanSmall"":1,""CanBig"":0,""Seaweed"":0}",0.5,1669.0600000381469,0.8076923076923077,2.0,2.0,2.0,2.0,2.0,1.0,0.0,2.0,2.0,2.0,1.0,1.0,2.0,100.0,11,0.75
6493958.0,6.0,80.0,Female,2.0,6-7,1.0,1.0,trial_12,,,0.0,,1854.1000003814695,,1815.3000011444087,"{""FishSmall"":1,""FishBig"":0,""CanSmall"":2,""CanBig"":1,""Seaweed"":2}","{""FishSmall"":3,""FishBig"":1,""CanSmall"":1,""CanBig"":0,""Seaweed"":1}",0.0,100.0,-5.0,6.666666666666667,9.574271077563381,9.428090415820634,2.0,1.0,11.666666666666668,-0.14618066174274702,-1.0,100.0,"{""FishSmall"":0,""FishBig"":0,""CanSmall"":3,""CanBig"":0,""Seaweed"":0}","{""FishSmall"":2,""FishBig"":1,""CanSmall"":0,""CanBig"":0,""Seaweed"":0}",0.5,1669.0600000381469,0.8076923076923077,2.0,2.0,2.0,2.0,2.0,1.0,0.0,2.0,2.0,2.0,1.0,1.0,2.0,100.0,12,0.75
6493958.0,6.0,80.0,Female,2.0,6-7,1.0,0.0,trial_13,,,,,4920.299999237061,,,"{""FishSmall"":1,""FishBig"":1,""CanSmall"":1,""CanBig"":0,""Seaweed"":3}","{""FishSmall"":2,""FishBig"":1,""CanSmall"":1,""CanBig"":0,""Seaweed"":2}",50.0,0.0,3.3333333333333335,5.0,9.428090415820634,9.574271077563381,3.0,2.0,1.6666666666666665,0.14618066174274702,-1.0,-50.0,"{""FishSmall"":0,""FishBig"":2,""CanSmall"":1,""CanBig"":0,""Seaweed"":0}","{""FishSmall"":1,""FishBig"":0,""CanSmall"":2,""CanBig"":0,""Seaweed"":0}",0.5,1669.0600000381469,0.8076923076923077,2.0,2.0,2.0,2.0,2.0,1.0,0.0,2.0,2.0,2.0,1.0,1.0,2.0,100.0,13,0.75
6493958.0,6.0,80.0,Female,2.0,6-7,1.0,0.0,trial_14,,0.0,1.0,,10354.39999961853,10575.79999923706,3587.7999992370605,"{""FishSmall"":1,""FishBig"":3,""CanSmall"":0,""CanBig"":0,""Seaweed"":2}","{""FishSmall"":1,""FishBig"":3,""CanSmall"":0,""CanBig"":0,""Seaweed"":2}",50.0,50.0,11.666666666666666,11.666666666666666,8.975274678557506,8.975274678557506,2.0,2.0,0.0,0.0,0.0,0.0,"{""FishSmall"":1,""FishBig"":2,""CanSmall"":0,""CanBig"":0,""Seaweed"":0}","{""FishSmall"":1,""FishBig"":2,""CanSmall"":0,""CanBig"":0,""Seaweed"":0}",0.5,1669.0600000381469,0.8076923076923077,2.0,2.0,2.0,2.0,2.0,1.0,0.0,2.0,2.0,2.0,1.0,1.0,2.0,100.0,14,0.75
6493958.0,6.0,80.0,Female,2.0,6-7,1.0,0.0,trial_15,,,1.0,,2805.2999992370605,,4191.5,"{""FishSmall"":1,""FishBig"":3,""CanSmall"":0,""CanBig"":0,""Seaweed"":2}","{""FishSmall"":1,""FishBig"":3,""CanSmall"":0,""CanBig"":0,""Seaweed"":2}",50.0,50.0,11.666666666666666,11.666666666666666,8.975274678557506,8.975274678557506,2.0,2.0,0.0,0.0,0.0,0.0,"{""FishSmall"":2,""FishBig"":1,""CanSmall"":0,""CanBig"":0,""Seaweed"":0}","{""FishSmall"":0,""FishBig"":2,""CanSmall"":0,""CanBig"":1,""Seaweed"":0}",0.5,1669.0600000381469,0.8076923076923077,2.0,2.0,2.0,2.0,2.0,1.0,0.0,2.0,2.0,2.0,1.0,1.0,2.0,100.0,15,0.75
6493958.0,6.0,80.0,Female,2.0,6-7,1.0,1.0,trial_16,,,0.0,,4790.900001525879,,2082.7000007629395,"{""FishSmall"":0,""FishBig"":0,""CanSmall"":3,""CanBig"":0,""Seaweed"":3}","{""FishSmall"":1,""FishBig"":4,""CanSmall"":0,""CanBig"":0,""Seaweed"":1}",0.0,50.0,-5.0,15.0,5.0,7.637626158259733,3.0,1.0,20.0,2.6376261582597333,-2.0,50.0,"{""FishSmall"":0,""FishBig"":1,""CanSmall"":2,""CanBig"":0,""Seaweed"":0}","{""FishSmall"":0,""FishBig"":2,""CanSmall"":0,""CanBig"":1,""Seaweed"":0}",0.5,1669.0600000381469,0.8076923076923077,2.0,2.0,2.0,2.0,2.0,1.0,0.0,2.0,2.0,2.0,1.0,1.0,2.0,100.0,16,0.75
6493958.0,6.0,80.0,Female,2.0,6-7,1.0,1.0,trial_17,,,0.0,,6490.800001144409,,7335.199998855591,"{""FishSmall"":3,""FishBig"":1,""CanSmall"":1,""CanBig"":0,""Seaweed"":1}","{""FishSmall"":4,""FishBig"":0,""CanSmall"":0,""CanBig"":0,""Seaweed"":2}",50.0,100.0,6.666666666666667,6.666666666666667,9.428090415820634,4.714045207910317,1.0,2.0,0.0,-4.714045207910317,1.0,50.0,"{""FishSmall"":2,""FishBig"":0,""CanSmall"":1,""CanBig"":0,""Seaweed"":0}","{""FishSmall"":2,""FishBig"":0,""CanSmall"":0,""CanBig"":1,""Seaweed"":0}",0.5,1669.0600000381469,0.8076923076923077,2.0,2.0,2.0,2.0,2.0,1.0,0.0,2.0,2.0,2.0,1.0,1.0,2.0,100.0,17,0.75
6493958.0,6.0,80.0,Female,2.0,6-7,1.0,0.0,trial_18,,0.0,,,1733.3999996185305,2496.2999992370605,,"{""FishSmall"":2,""FishBig"":0,""CanSmall"":2,""CanBig"":0,""Seaweed"":2}","{""FishSmall"":1,""FishBig"":1,""CanSmall"":1,""CanBig"":0,""Seaweed"":3}",50.0,0.0,0.0,3.3333333333333335,8.16496580927726,9.428090415820634,2.0,3.0,3.3333333333333335,1.2631246065433732,1.0,-50.0,"{""FishSmall"":1,""FishBig"":1,""CanSmall"":1,""CanBig"":0,""Seaweed"":0}","{""FishSmall"":1,""FishBig"":1,""CanSmall"":1,""CanBig"":0,""Seaweed"":0}",0.5,1669.0600000381469,0.8076923076923077,2.0,2.0,2.0,2.0,2.0,1.0,0.0,2.0,2.0,2.0,1.0,1.0,2.0,100.0,18,0.75
6493958.0,6.0,80.0,Female,2.0,6-7,1.0,0.0,trial_19,,,,,1901.7999992370603,,,"{""FishSmall"":2,""FishBig"":4,""CanSmall"":0,""CanBig"":0,""Seaweed"":0}","{""FishSmall"":4,""FishBig"":0,""CanSmall"":2,""CanBig"":0,""Seaweed"":0}",0.0,0.0,16.666666666666668,3.3333333333333335,4.714045207910316,9.428090415820634,0.0,0.0,-13.333333333333334,4.714045207910318,0.0,0.0,"{""FishSmall"":1,""FishBig"":2,""CanSmall"":0,""CanBig"":0,""Seaweed"":0}","{""FishSmall"":2,""FishBig"":0,""CanSmall"":1,""CanBig"":0,""Seaweed"":0}",0.5,1669.0600000381469,0.8076923076923077,2.0,2.0,2.0,2.0,2.0,1.0,0.0,2.0,2.0,2.0,1.0,1.0,2.0,100.0,19,0.75
6493958.0,6.0,80.0,Female,2.0,6-7,1.0,1.0,trial_20,,,1.0,,1687.0,,1683.6000003814695,"{""FishSmall"":0,""FishBig"":1,""CanSmall"":0,""CanBig"":1,""Seaweed"":4}","{""FishSmall"":0,""FishBig"":0,""CanSmall"":3,""CanBig"":2,""Seaweed"":1}",0.0,100.0,0.0,-11.666666666666666,11.547005383792516,6.871842709362768,4.0,1.0,-11.666666666666666,-4.675162674429749,-3.0,100.0,"{""FishSmall"":1,""FishBig"":2,""CanSmall"":0,""CanBig"":0,""Seaweed"":0}","{""FishSmall"":0,""FishBig"":0,""CanSmall"":2,""CanBig"":1,""Seaweed"":0}",0.5,1669.0600000381469,0.8076923076923077,2.0,2.0,2.0,2.0,2.0,1.0,0.0,2.0,2.0,2.0,1.0,1.0,2.0,100.0,20,0.75
6493958.0,6.0,80.0,Female,2.0,6-7,1.0,,catch_2,1.0,,,3898.1000003814697,,,,"{""FishSmall"":0,""FishBig"":0,""CanSmall"":3,""CanBig"":3,""Seaweed"":0}","{""FishSmall"":0,""FishBig"":0,""CanSmall"":3,""CanBig"":3,""Seaweed"":0}",0.0,0.0,,,,,,,,,,,"{""FishSmall"":0,""FishBig"":0,""CanSmall"":1,""CanBig"":2,""Seaweed"":0}","{""FishSmall"":0,""FishBig"":0,""CanSmall"":1,""CanBig"":2,""Seaweed"":0}",0.5,1669.0600000381469,0.8076923076923077,2.0,2.0,2.0,2.0,2.0,1.0,0.0,2.0,2.0,2.0,1.0,1.0,2.0,100.0,,0.75
6493958.0,6.0,80.0,Female,2.0,6-7,1.0,0.0,trial_21,,0.0,1.0,,4406.799999237061,1945.2000007629397,5453.0,"{""FishSmall"":0,""FishBig"":0,""CanSmall"":1,""CanBig"":2,""Seaweed"":3}","{""FishSmall"":0,""FishBig"":1,""CanSmall"":0,""CanBig"":1,""Seaweed"":4}",100.0,50.0,-8.333333333333334,0.0,8.975274678557506,11.547005383792516,3.0,4.0,8.333333333333334,2.5717307052350105,1.0,-50.0,"{""FishSmall"":1,""FishBig"":1,""CanSmall"":0,""CanBig"":1,""Seaweed"":0}","{""FishSmall"":0,""FishBig"":1,""CanSmall"":0,""CanBig"":2,""Seaweed"":0}",0.5,1669.0600000381469,0.8076923076923077,2.0,2.0,2.0,2.0,2.0,1.0,0.0,2.0,2.0,2.0,1.0,1.0,2.0,100.0,21,0.75
6493958.0,6.0,80.0,Female,2.0,6-7,1.0,1.0,trial_22,,,,,2739.5,,,"{""FishSmall"":3,""FishBig"":1,""CanSmall"":1,""CanBig"":0,""Seaweed"":1}","{""FishSmall"":2,""FishBig"":1,""CanSmall"":1,""CanBig"":0,""Seaweed"":2}",0.0,50.0,6.666666666666667,5.0,9.428090415820634,9.574271077563381,1.0,2.0,-1.666666666666667,0.14618066174274702,1.0,50.0,"{""FishSmall"":2,""FishBig"":0,""CanSmall"":1,""CanBig"":0,""Seaweed"":0}","{""FishSmall"":2,""FishBig"":0,""CanSmall"":1,""CanBig"":0,""Seaweed"":0}",0.5,1669.0600000381469,0.8076923076923077,2.0,2.0,2.0,2.0,2.0,1.0,0.0,2.0,2.0,2.0,1.0,1.0,2.0,100.0,22,0.75
6493958.0,6.0,80.0,Female,2.0,6-7,1.0,1.0,trial_23,,0.0,1.0,,1422.3000011444092,3596.0,3745.6000003814697,"{""FishSmall"":1,""FishBig"":2,""CanSmall"":0,""CanBig"":0,""Seaweed"":3}","{""FishSmall"":1,""FishBig"":0,""CanSmall"":4,""CanBig"":0,""Seaweed"":1}",50.0,100.0,8.333333333333334,-5.0,8.975274678557506,7.637626158259733,3.0,1.0,-13.333333333333334,-1.3376485202977726,-2.0,50.0,"{""FishSmall"":1,""FishBig"":1,""CanSmall"":1,""CanBig"":0,""Seaweed"":0}","{""FishSmall"":1,""FishBig"":0,""CanSmall"":2,""CanBig"":0,""Seaweed"":0}",0.5,1669.0600000381469,0.8076923076923077,2.0,2.0,2.0,2.0,2.0,1.0,0.0,2.0,2.0,2.0,1.0,1.0,2.0,100.0,23,0.75
6493958.0,6.0,80.0,Female,2.0,6-7,1.0,1.0,trial_24,,,0.0,,10920.19999885559,,1728.0,"{""FishSmall"":2,""FishBig"":0,""CanSmall"":4,""CanBig"":0,""Seaweed"":0}","{""FishSmall"":1,""FishBig"":0,""CanSmall"":2,""CanBig"":1,""Seaweed"":2}",0.0,100.0,-3.3333333333333335,-5.0,9.428090415820634,9.574271077563381,0.0,2.0,-1.6666666666666665,0.14618066174274702,2.0,100.0,"{""FishSmall"":1,""FishBig"":0,""CanSmall"":2,""CanBig"":0,""Seaweed"":0}","{""FishSmall"":1,""FishBig"":1,""CanSmall"":0,""CanBig"":1,""Seaweed"":0}",0.5,1669.0600000381469,0.8076923076923077,2.0,2.0,2.0,2.0,2.0,1.0,0.0,2.0,2.0,2.0,1.0,1.0,2.0,100.0,24,0.75
6493958.0,6.0,80.0,Female,2.0,6-7,1.0,1.0,trial_25,,1.0,1.0,,4086.6000003814697,3876.799999237061,1262.5,"{""FishSmall"":2,""FishBig"":0,""CanSmall"":3,""CanBig"":0,""Seaweed"":1}","{""FishSmall"":0,""FishBig"":0,""CanSmall"":3,""CanBig"":2,""Seaweed"":1}",50.0,100.0,-1.6666666666666667,-11.666666666666666,8.975274678557506,6.871842709362768,1.0,1.0,-10.0,-2.1034319691947383,0.0,50.0,"{""FishSmall"":0,""FishBig"":1,""CanSmall"":2,""CanBig"":0,""Seaweed"":0}","{""FishSmall"":0,""FishBig"":0,""CanSmall"":2,""CanBig"":1,""Seaweed"":0}",0.5,1669.0600000381469,0.8076923076923077,2.0,2.0,2.0,2.0,2.0,1.0,0.0,2.0,2.0,2.0,1.0,1.0,2.0,100.0,25,0.75
6493958.0,6.0,80.0,Female,2.0,6-7,1.0,0.0,trial_26,,1.0,1.0,,6885.299999237061,7477.10000038147,4036.299999237061,"{""FishSmall"":3,""FishBig"":1,""CanSmall"":1,""CanBig"":0,""Seaweed"":1}","{""FishSmall"":2,""FishBig"":1,""CanSmall"":0,""CanBig"":0,""Seaweed"":3}",100.0,50.0,6.666666666666667,6.666666666666667,9.428090415820634,7.453559924999299,1.0,3.0,0.0,-1.9745304908213352,2.0,-50.0,"{""FishSmall"":0,""FishBig"":1,""CanSmall"":1,""CanBig"":1,""Seaweed"":0}","{""FishSmall"":2,""FishBig"":1,""CanSmall"":0,""CanBig"":0,""Seaweed"":0}",0.5,1669.0600000381469,0.8076923076923077,2.0,2.0,2.0,2.0,2.0,1.0,0.0,2.0,2.0,2.0,1.0,1.0,2.0,100.0,26,0.75
6493958.0,6.0,80.0,Female,2.0,6-7,1.0,0.0,trial_27,,,0.0,,12388.5,,10185.5,"{""FishSmall"":3,""FishBig"":2,""CanSmall"":0,""CanBig"":0,""Seaweed"":1}","{""FishSmall"":1,""FishBig"":0,""CanSmall"":4,""CanBig"":0,""Seaweed"":1}",50.0,50.0,11.666666666666666,-5.0,6.871842709362768,7.637626158259733,1.0,1.0,-16.666666666666664,0.7657834488969657,0.0,0.0,"{""FishSmall"":2,""FishBig"":0,""CanSmall"":1,""CanBig"":0,""Seaweed"":0}","{""FishSmall"":0,""FishBig"":0,""CanSmall"":3,""CanBig"":0,""Seaweed"":0}",0.5,1669.0600000381469,0.8076923076923077,2.0,2.0,2.0,2.0,2.0,1.0,0.0,2.0,2.0,2.0,1.0,1.0,2.0,100.0,27,0.75
6493958.0,6.0,80.0,Female,2.0,6-7,1.0,0.0,trial_28,,0.0,,,8826.400001525879,1785.1000003814695,,"{""FishSmall"":4,""FishBig"":1,""CanSmall"":1,""CanBig"":0,""Seaweed"":0}","{""FishSmall"":2,""FishBig"":0,""CanSmall"":1,""CanBig"":0,""Seaweed"":3}",100.0,0.0,8.333333333333334,1.6666666666666667,8.975274678557506,6.871842709362768,0.0,3.0,-6.666666666666667,-2.1034319691947383,3.0,-100.0,"{""FishSmall"":3,""FishBig"":0,""CanSmall"":0,""CanBig"":0,""Seaweed"":0}","{""FishSmall"":1,""FishBig"":1,""CanSmall"":0,""CanBig"":1,""Seaweed"":0}",0.5,1669.0600000381469,0.8076923076923077,2.0,2.0,2.0,2.0,2.0,1.0,0.0,2.0,2.0,2.0,1.0,1.0,2.0,100.0,28,0.75
6493958.0,6.0,80.0,Female,2.0,6-7,1.0,1.0,trial_29,,,0.0,,3248.0,,1687.6000003814695,"{""FishSmall"":2,""FishBig"":0,""CanSmall"":3,""CanBig"":0,""Seaweed"":1}","{""FishSmall"":1,""FishBig"":3,""CanSmall"":0,""CanBig"":0,""Seaweed"":2}",0.0,100.0,-1.6666666666666667,11.666666666666666,8.975274678557506,8.975274678557506,1.0,2.0,13.333333333333332,0.0,1.0,100.0,"{""FishSmall"":0,""FishBig"":0,""CanSmall"":3,""CanBig"":0,""Seaweed"":0}","{""FishSmall"":0,""FishBig"":2,""CanSmall"":1,""CanBig"":0,""Seaweed"":0}",0.5,1669.0600000381469,0.8076923076923077,2.0,2.0,2.0,2.0,2.0,1.0,0.0,2.0,2.0,2.0,1.0,1.0,2.0,100.0,29,0.75
6493958.0,6.0,80.0,Female,2.0,6-7,1.0,0.0,trial_30,,0.0,,,13018.29999923706,3082.6000003814697,,"{""FishSmall"":2,""FishBig"":1,""CanSmall"":1,""CanBig"":0,""Seaweed"":2}","{""FishSmall"":3,""FishBig"":2,""CanSmall"":0,""CanBig"":0,""Seaweed"":1}",100.0,0.0,5.0,11.666666666666666,9.574271077563381,6.871842709362768,2.0,1.0,6.666666666666666,-2.7024283682006134,-1.0,-100.0,"{""FishSmall"":1,""FishBig"":1,""CanSmall"":1,""CanBig"":0,""Seaweed"":0}","{""FishSmall"":2,""FishBig"":0,""CanSmall"":0,""CanBig"":1,""Seaweed"":0}",0.5,1669.0600000381469,0.8076923076923077,2.0,2.0,2.0,2.0,2.0,1.0,0.0,2.0,2.0,2.0,1.0,1.0,2.0,100.0,30,0.75
6495307.0,8.0,100.0,Female,2.0,8-9,2.0,1.0,trial_1,,,,,5744.0,,,"{""FishSmall"":1,""FishBig"":0,""CanSmall"":3,""CanBig"":1,""Seaweed"":1}","{""FishSmall"":1,""FishBig"":0,""CanSmall"":1,""CanBig"":1,""Seaweed"":3}",0.0,0.0,-6.666666666666667,-3.3333333333333335,9.428090415820632,9.428090415820634,1.0,3.0,3.3333333333333335,1.7763568394002505e-15,2.0,0.0,"{""FishSmall"":1,""FishBig"":0,""CanSmall"":2,""CanBig"":0,""Seaweed"":0}","{""FishSmall"":1,""FishBig"":1,""CanSmall"":0,""CanBig"":1,""Seaweed"":0}",1.0,864.1,1.0,2.0,2.0,2.0,2.0,2.0,2.0,2.0,2.0,2.0,2.0,2.0,2.0,2.0,100.0,1,0.5806451612903226
6495307.0,8.0,100.0,Female,2.0,8-9,2.0,1.0,trial_2,,,0.0,,4224.0,,9427.0,"{""FishSmall"":2,""FishBig"":0,""CanSmall"":3,""CanBig"":0,""Seaweed"":1}","{""FishSmall"":1,""FishBig"":1,""CanSmall"":1,""CanBig"":0,""Seaweed"":3}",0.0,100.0,-1.6666666666666667,3.3333333333333335,8.975274678557506,9.428090415820634,1.0,3.0,5.0,0.45281573726312807,2.0,100.0,"{""FishSmall"":0,""FishBig"":0,""CanSmall"":2,""CanBig"":1,""Seaweed"":0}","{""FishSmall"":1,""FishBig"":2,""CanSmall"":0,""CanBig"":0,""Seaweed"":0}",1.0,864.1,1.0,2.0,2.0,2.0,2.0,2.0,2.0,2.0,2.0,2.0,2.0,2.0,2.0,2.0,100.0,2,0.5806451612903226
6495307.0,8.0,100.0,Female,2.0,8-9,2.0,1.0,trial_3,,,,,4230.0,,,"{""FishSmall"":1,""FishBig"":0,""CanSmall"":2,""CanBig"":1,""Seaweed"":2}","{""FishSmall"":2,""FishBig"":1,""CanSmall"":1,""CanBig"":0,""Seaweed"":2}",50.0,50.0,-5.0,5.0,9.574271077563381,9.574271077563381,2.0,2.0,10.0,0.0,0.0,0.0,"{""FishSmall"":0,""FishBig"":0,""CanSmall"":1,""CanBig"":2,""Seaweed"":0}","{""FishSmall"":1,""FishBig"":1,""CanSmall"":1,""CanBig"":0,""Seaweed"":0}",1.0,864.1,1.0,2.0,2.0,2.0,2.0,2.0,2.0,2.0,2.0,2.0,2.0,2.0,2.0,2.0,100.0,3,0.5806451612903226
6495307.0,8.0,100.0,Female,2.0,8-9,2.0,0.0,trial_4,,,,,14572.0,,,"{""FishSmall"":2,""FishBig"":0,""CanSmall"":3,""CanBig"":0,""Seaweed"":1}","{""FishSmall"":1,""FishBig"":2,""CanSmall"":0,""CanBig"":0,""Seaweed"":3}",50.0,0.0,-1.6666666666666667,8.333333333333334,8.975274678557506,8.975274678557506,1.0,3.0,10.0,0.0,2.0,-50.0,"{""FishSmall"":1,""FishBig"":0,""CanSmall"":2,""CanBig"":0,""Seaweed"":0}","{""FishSmall"":1,""FishBig"":1,""CanSmall"":1,""CanBig"":0,""Seaweed"":0}",1.0,864.1,1.0,2.0,2.0,2.0,2.0,2.0,2.0,2.0,2.0,2.0,2.0,2.0,2.0,2.0,100.0,4,0.5806451612903226
