subject_ID,age_in_years,gender,gender_coded,info_choice,condition,catch_trials,fishing_choiceL,fishing_choiceR,RT_catch,RT_info_choice,RT_fishingR,RT_fishingL,items_countL,items_countR,agency_probL,agency_probR,EV_L,EV_R,SD_L,SD_R,uncertainty_level_L,uncertainty_level_R,delta_EV,delta_SD,delta_uncertainty_level,delta_agency,wob,avg_wob_RT,percent_comprehension,q1,q2,q3,q4,q5,q6,q7,q8,q9,q10,q11,q12,q13,catch_trials_score,prop_correct_fishing
3714605,22,Male,1,1,trial_1,,,0,,3181,2612,,"{""FishSmall"":0,""FishBig"":0,""CanSmall"":2,""CanBig"":3,""Seaweed"":1}","{""FishSmall"":3,""FishBig"":0,""CanSmall"":1,""CanBig"":0,""Seaweed"":2}",50,50,-13.33333333,3.333333333,7.453559925,7.453559925,1,2,16.66666667,-8.88E-16,1,0,1,1399.2,1,2,2,2,2,2,2,2,2,2,2,2,2,2,100,0.7
3714605,22,Male,1,0,trial_2,,1,1,,2754,8065,1689,"{""FishSmall"":2,""FishBig"":1,""CanSmall"":0,""CanBig"":0,""Seaweed"":3}","{""FishSmall"":2,""FishBig"":0,""CanSmall"":3,""CanBig"":0,""Seaweed"":1}",100,50,6.666666667,-1.666666667,7.453559925,8.975274679,3,1,-8.333333333,1.521714754,-2,-50,1,1399.2,1,2,2,2,2,2,2,2,2,2,2,2,2,2,100,0.7
3714605,22,Male,1,1,trial_3,,,0,,1402,2107,,"{""FishSmall"":0,""FishBig"":0,""CanSmall"":1,""CanBig"":3,""Seaweed"":2}","{""FishSmall"":1,""FishBig"":1,""CanSmall"":1,""CanBig"":0,""Seaweed"":3}",50,50,-11.66666667,3.333333333,8.975274679,9.428090416,2,3,15,0.452815737,1,0,1,1399.2,1,2,2,2,2,2,2,2,2,2,2,2,2,2,100,0.7
3714605,22,Male,1,0,trial_4,,0,,,2224,,2007,"{""FishSmall"":1,""FishBig"":0,""CanSmall"":1,""CanBig"":1,""Seaweed"":3}","{""FishSmall"":0,""FishBig"":0,""CanSmall"":2,""CanBig"":3,""Seaweed"":1}",100,0,-3.333333333,-13.33333333,9.428090416,7.453559925,3,1,-10,-1.974530491,-2,-100,1,1399.2,1,2,2,2,2,2,2,2,2,2,2,2,2,2,100,0.7
3714605,22,Male,1,0,trial_5,,,0,,3306,2642,,"{""FishSmall"":1,""FishBig"":0,""CanSmall"":3,""CanBig"":1,""Seaweed"":1}","{""FishSmall"":3,""FishBig"":3,""CanSmall"":0,""CanBig"":0,""Seaweed"":0}",0,100,-6.666666667,15,9.428090416,5,1,0,21.66666667,-4.428090416,-1,100,1,1399.2,1,2,2,2,2,2,2,2,2,2,2,2,2,2,100,0.7
3714605,22,Male,1,1,trial_6,,1,,,4471,,735,"{""FishSmall"":1,""FishBig"":0,""CanSmall"":2,""CanBig"":1,""Seaweed"":2}","{""FishSmall"":0,""FishBig"":0,""CanSmall"":2,""CanBig"":3,""Seaweed"":1}",50,0,-5,-13.33333333,9.574271078,7.453559925,2,1,-8.333333333,-2.120711153,-1,-50,1,1399.2,1,2,2,2,2,2,2,2,2,2,2,2,2,2,100,0.7
3714605,22,Male,1,0,trial_7,,,,,4300,,,"{""FishSmall"":2,""FishBig"":2,""CanSmall"":0,""CanBig"":0,""Seaweed"":2}","{""FishSmall"":1,""FishBig"":0,""CanSmall"":2,""CanBig"":0,""Seaweed"":3}",0,0,10,-1.666666667,8.164965809,6.871842709,2,3,-11.66666667,-1.2931231,1,0,1,1399.2,1,2,2,2,2,2,2,2,2,2,2,2,2,2,100,0.7
3714605,22,Male,1,0,trial_8,,,,,6660,,,"{""FishSmall"":2,""FishBig"":0,""CanSmall"":3,""CanBig"":0,""Seaweed"":1}","{""FishSmall"":0,""FishBig"":0,""CanSmall"":1,""CanBig"":3,""Seaweed"":2}",0,0,-1.666666667,-11.66666667,8.975274679,8.975274679,1,2,-10,0,1,0,1,1399.2,1,2,2,2,2,2,2,2,2,2,2,2,2,2,100,0.7
3714605,22,Male,1,1,trial_9,,1,,,3806,,4859,"{""FishSmall"":1,""FishBig"":0,""CanSmall"":2,""CanBig"":1,""Seaweed"":2}","{""FishSmall"":0,""FishBig"":0,""CanSmall"":3,""CanBig"":2,""Seaweed"":1}",50,0,-5,-11.66666667,9.574271078,6.871842709,2,1,-6.666666667,-2.702428368,-1,-50,1,1399.2,1,2,2,2,2,2,2,2,2,2,2,2,2,2,100,0.7
3714605,22,Male,1,0,trial_10,,,0,,5734,1584,,"{""FishSmall"":3,""FishBig"":1,""CanSmall"":0,""CanBig"":0,""Seaweed"":2}","{""FishSmall"":1,""FishBig"":4,""CanSmall"":0,""CanBig"":0,""Seaweed"":1}",50,100,8.333333333,15,6.871842709,7.637626158,2,1,6.666666667,0.765783449,-1,50,1,1399.2,1,2,2,2,2,2,2,2,2,2,2,2,2,2,100,0.7
3714605,,,,,catch_1,0,,,6474,,,,"{""FishSmall"":4,""FishBig"":2,""CanSmall"":0,""CanBig"":0,""Seaweed"":0}","{""FishSmall"":4,""FishBig"":2,""CanSmall"":0,""CanBig"":0,""Seaweed"":0}",0,0,,,,,,,,,,,,,,,,,,,,,,,,,,,100,0.7
3714605,22,Male,1,0,trial_11,,,0,,5393,4161,,"{""FishSmall"":2,""FishBig"":2,""CanSmall"":0,""CanBig"":0,""Seaweed"":2}","{""FishSmall"":2,""FishBig"":0,""CanSmall"":2,""CanBig"":0,""Seaweed"":2}",0,100,10,0,8.164965809,8.164965809,2,2,-10,0,0,100,1,1399.2,1,2,2,2,2,2,2,2,2,2,2,2,2,2,100,0.7
3714605,22,Male,1,1,trial_12,,1,0,,3734,2305,7092,"{""FishSmall"":2,""FishBig"":0,""CanSmall"":4,""CanBig"":0,""Seaweed"":0}","{""FishSmall"":3,""FishBig"":1,""CanSmall"":1,""CanBig"":0,""Seaweed"":1}",50,50,-3.333333333,6.666666667,9.428090416,9.428090416,0,1,10,0,1,0,1,1399.2,1,2,2,2,2,2,2,2,2,2,2,2,2,2,100,0.7
3714605,22,Male,1,1,trial_13,,,0,,7647,3011,,"{""FishSmall"":1,""FishBig"":1,""CanSmall"":1,""CanBig"":0,""Seaweed"":3}","{""FishSmall"":3,""FishBig"":0,""CanSmall"":1,""CanBig"":0,""Seaweed"":2}",50,100,3.333333333,3.333333333,9.428090416,7.453559925,3,2,0,-1.974530491,-1,50,1,1399.2,1,2,2,2,2,2,2,2,2,2,2,2,2,2,100,0.7
3714605,22,Male,1,0,trial_14,,0,,,1227,,5438,"{""FishSmall"":3,""FishBig"":2,""CanSmall"":0,""CanBig"":0,""Seaweed"":1}","{""FishSmall"":1,""FishBig"":2,""CanSmall"":0,""CanBig"":0,""Seaweed"":3}",100,0,11.66666667,8.333333333,6.871842709,8.975274679,1,3,-3.333333333,2.103431969,2,-100,1,1399.2,1,2,2,2,2,2,2,2,2,2,2,2,2,2,100,0.7
3714605,22,Male,1,0,trial_15,,0,,,3664,,1271,"{""FishSmall"":0,""FishBig"":0,""CanSmall"":3,""CanBig"":0,""Seaweed"":3}","{""FishSmall"":0,""FishBig"":0,""CanSmall"":4,""CanBig"":1,""Seaweed"":1}",100,50,-5,-10,5,5.773502692,3,1,-5,0.773502692,-2,-50,1,1399.2,1,2,2,2,2,2,2,2,2,2,2,2,2,2,100,0.7
3714605,22,Male,1,0,trial_16,,1,1,,2702,2918,3127,"{""FishSmall"":0,""FishBig"":1,""CanSmall"":0,""CanBig"":1,""Seaweed"":4}","{""FishSmall"":1,""FishBig"":0,""CanSmall"":3,""CanBig"":1,""Seaweed"":1}",50,100,0,-6.666666667,11.54700538,9.428090416,4,1,-6.666666667,-2.118914968,-3,50,1,1399.2,1,2,2,2,2,2,2,2,2,2,2,2,2,2,100,0.7
3714605,22,Male,1,1,trial_17,,1,1,,2805,1935,1870,"{""FishSmall"":1,""FishBig"":0,""CanSmall"":2,""CanBig"":1,""Seaweed"":2}","{""FishSmall"":0,""FishBig"":0,""CanSmall"":3,""CanBig"":2,""Seaweed"":1}",100,100,-5,-11.66666667,9.574271078,6.871842709,2,1,-6.666666667,-2.702428368,-1,0,1,1399.2,1,2,2,2,2,2,2,2,2,2,2,2,2,2,100,0.7
3714605,22,Male,1,0,trial_18,,,1,,4847,2976,,"{""FishSmall"":2,""FishBig"":3,""CanSmall"":0,""CanBig"":0,""Seaweed"":1}","{""FishSmall"":0,""FishBig"":0,""CanSmall"":2,""CanBig"":4,""Seaweed"":0}",0,100,13.33333333,-16.66666667,7.453559925,4.714045208,1,0,-30,-2.739514717,-1,100,1,1399.2,1,2,2,2,2,2,2,2,2,2,2,2,2,2,100,0.7
3714605,22,Male,1,1,trial_19,,,,,6075,,,"{""FishSmall"":0,""FishBig"":0,""CanSmall"":2,""CanBig"":2,""Seaweed"":2}","{""FishSmall"":3,""FishBig"":1,""CanSmall"":1,""CanBig"":0,""Seaweed"":1}",50,0,-10,6.666666667,8.164965809,9.428090416,2,1,16.66666667,1.263124607,-1,-50,1,1399.2,1,2,2,2,2,2,2,2,2,2,2,2,2,2,100,0.7
3714605,22,Male,1,1,trial_20,,,1,,3741,1773,,"{""FishSmall"":0,""FishBig"":0,""CanSmall"":1,""CanBig"":2,""Seaweed"":3}","{""FishSmall"":2,""FishBig"":0,""CanSmall"":2,""CanBig"":0,""Seaweed"":2}",50,50,-8.333333333,0,8.975274679,8.164965809,3,2,8.333333333,-0.810308869,-1,0,1,1399.2,1,2,2,2,2,2,2,2,2,2,2,2,2,2,100,0.7
3714605,,,,,catch_2,1,,,1675,,,,"{""FishSmall"":0,""FishBig"":0,""CanSmall"":3,""CanBig"":3,""Seaweed"":0}","{""FishSmall"":0,""FishBig"":0,""CanSmall"":3,""CanBig"":3,""Seaweed"":0}",0,0,,,,,,,,,,,,,,,,,,,,,,,,,,,100,0.7
3714605,22,Male,1,0,trial_21,,0,,,3024,,2262,"{""FishSmall"":1,""FishBig"":1,""CanSmall"":1,""CanBig"":0,""Seaweed"":3}","{""FishSmall"":0,""FishBig"":0,""CanSmall"":4,""CanBig"":0,""Seaweed"":2}",100,50,3.333333333,-6.666666667,9.428090416,4.714045208,3,2,-10,-4.714045208,-1,-50,1,1399.2,1,2,2,2,2,2,2,2,2,2,2,2,2,2,100,0.7
3714605,22,Male,1,1,trial_22,,,,,4390,,,"{""FishSmall"":2,""FishBig"":1,""CanSmall"":0,""CanBig"":0,""Seaweed"":3}","{""FishSmall"":2,""FishBig"":2,""CanSmall"":0,""CanBig"":0,""Seaweed"":2}",0,0,6.666666667,10,7.453559925,8.164965809,3,2,3.333333333,0.711405884,-1,0,1,1399.2,1,2,2,2,2,2,2,2,2,2,2,2,2,2,100,0.7
3714605,22,Male,1,1,trial_23,,1,,,7251,,1075,"{""FishSmall"":0,""FishBig"":0,""CanSmall"":2,""CanBig"":4,""Seaweed"":0}","{""FishSmall"":3,""FishBig"":3,""CanSmall"":0,""CanBig"":0,""Seaweed"":0}",50,0,-16.66666667,15,4.714045208,5,0,0,31.66666667,0.285954792,0,-50,1,1399.2,1,2,2,2,2,2,2,2,2,2,2,2,2,2,100,0.7
3714605,22,Male,1,0,trial_24,,,1,,1342,3092,,"{""FishSmall"":2,""FishBig"":0,""CanSmall"":2,""CanBig"":0,""Seaweed"":2}","{""FishSmall"":1,""FishBig"":0,""CanSmall"":2,""CanBig"":1,""Seaweed"":2}",0,50,0,-5,8.164965809,9.574271078,2,2,-5,1.409305268,0,50,1,1399.2,1,2,2,2,2,2,2,2,2,2,2,2,2,2,100,0.7
3714605,22,Male,1,1,trial_25,,0,0,,3576,3336,1083,"{""FishSmall"":2,""FishBig"":3,""CanSmall"":0,""CanBig"":0,""Seaweed"":1}","{""FishSmall"":2,""FishBig"":0,""CanSmall"":1,""CanBig"":0,""Seaweed"":3}",50,100,13.33333333,1.666666667,7.453559925,6.871842709,1,3,-11.66666667,-0.581717216,2,50,1,1399.2,1,2,2,2,2,2,2,2,2,2,2,2,2,2,100,0.7
3714605,22,Male,1,1,trial_26,,,,,5923,,,"{""FishSmall"":3,""FishBig"":1,""CanSmall"":1,""CanBig"":0,""Seaweed"":1}","{""FishSmall"":0,""FishBig"":0,""CanSmall"":1,""CanBig"":4,""Seaweed"":1}",0,0,6.666666667,-15,9.428090416,7.637626158,1,1,-21.66666667,-1.790464258,0,0,1,1399.2,1,2,2,2,2,2,2,2,2,2,2,2,2,2,100,0.7
3714605,22,Male,1,1,trial_27,,,,,4083,,,"{""FishSmall"":2,""FishBig"":0,""CanSmall"":3,""CanBig"":0,""Seaweed"":1}","{""FishSmall"":2,""FishBig"":1,""CanSmall"":1,""CanBig"":0,""Seaweed"":2}",0,0,-1.666666667,5,8.975274679,9.574271078,1,2,6.666666667,0.598996399,1,0,1,1399.2,1,2,2,2,2,2,2,2,2,2,2,2,2,2,100,0.7
3714605,22,Male,1,0,trial_28,,0,0,,2252,2229,6976,"{""FishSmall"":1,""FishBig"":0,""CanSmall"":2,""CanBig"":0,""Seaweed"":3}","{""FishSmall"":4,""FishBig"":2,""CanSmall"":0,""CanBig"":0,""Seaweed"":0}",50,100,-1.666666667,13.33333333,6.871842709,4.714045208,3,0,15,-2.157797501,-3,50,1,1399.2,1,2,2,2,2,2,2,2,2,2,2,2,2,2,100,0.7
3714605,22,Male,1,1,trial_29,,,,,3291,,,"{""FishSmall"":4,""FishBig"":1,""CanSmall"":1,""CanBig"":0,""Seaweed"":0}","{""FishSmall"":0,""FishBig"":0,""CanSmall"":3,""CanBig"":1,""Seaweed"":2}",0,0,8.333333333,-8.333333333,8.975274679,6.871842709,0,2,-16.66666667,-2.103431969,2,0,1,1399.2,1,2,2,2,2,2,2,2,2,2,2,2,2,2,100,0.7
3714605,22,Male,1,1,trial_30,,,1,,5074,2809,,"{""FishSmall"":2,""FishBig"":0,""CanSmall"":2,""CanBig"":0,""Seaweed"":2}","{""FishSmall"":1,""FishBig"":0,""CanSmall"":1,""CanBig"":1,""Seaweed"":3}",0,100,0,-3.333333333,8.164965809,9.428090416,2,3,-3.333333333,1.263124607,1,100,1,1399.2,1,2,2,2,2,2,2,2,2,2,2,2,2,2,100,0.7
3714606,26,Female,2,1,trial_1,,,0,,3599.45,833.3,,"{""FishSmall"":1,""FishBig"":0,""CanSmall"":2,""CanBig"":0,""Seaweed"":3}","{""FishSmall"":2,""FishBig"":1,""CanSmall"":1,""CanBig"":0,""Seaweed"":2}",50,100,-1.666666667,5,6.871842709,9.574271078,3,2,6.666666667,2.702428368,-1,50,0.9,1435.8215,0.884615385,2,2,1,1,2,2,2,2,2,2,2,1,2,100,0.5
3714606,26,Female,2,0,trial_2,,0,,,1346.815,,898.055,"{""FishSmall"":0,""FishBig"":0,""CanSmall"":2,""CanBig"":2,""Seaweed"":2}","{""FishSmall"":0,""FishBig"":0,""CanSmall"":0,""CanBig"":4,""Seaweed"":2}",50,0,-10,-13.33333333,8.164965809,9.428090416,2,2,-3.333333333,1.263124607,0,-50,0.9,1435.8215,0.884615385,2,2,1,1,2,2,2,2,2,2,2,1,2,100,0.5
3714606,26,Female,2,1,trial_3,,0,0,,762,4081.605,2125.305,"{""FishSmall"":1,""FishBig"":0,""CanSmall"":2,""CanBig"":1,""Seaweed"":2}","{""FishSmall"":2,""FishBig"":1,""CanSmall"":1,""CanBig"":0,""Seaweed"":2}",100,100,-5,5,9.574271078,9.574271078,2,2,10,0,0,0,0.9,1435.8215,0.884615385,2,2,1,1,2,2,2,2,2,2,2,1,2,100,0.5
3714606,26,Female,2,1,trial_4,,,,,1302.515,,,"{""FishSmall"":1,""FishBig"":1,""CanSmall"":1,""CanBig"":0,""Seaweed"":3}","{""FishSmall"":2,""FishBig"":3,""CanSmall"":0,""CanBig"":0,""Seaweed"":1}",0,0,3.333333333,13.33333333,9.428090416,7.453559925,3,1,10,-1.974530491,-2,0,0.9,1435.8215,0.884615385,2,2,1,1,2,2,2,2,2,2,2,1,2,100,0.5
3714606,26,Female,2,0,trial_5,,0,0,,1351.89,2748.415,777.7,"{""FishSmall"":2,""FishBig"":3,""CanSmall"":0,""CanBig"":0,""Seaweed"":1}","{""FishSmall"":1,""FishBig"":0,""CanSmall"":2,""CanBig"":1,""Seaweed"":2}",50,50,13.33333333,-5,7.453559925,9.574271078,1,2,-18.33333333,2.120711153,1,0,0.9,1435.8215,0.884615385,2,2,1,1,2,2,2,2,2,2,2,1,2,100,0.5
3714606,26,Female,2,1,trial_6,,1,,,3254.68,,1174.235,"{""FishSmall"":1,""FishBig"":5,""CanSmall"":0,""CanBig"":0,""Seaweed"":0}","{""FishSmall"":2,""FishBig"":3,""CanSmall"":0,""CanBig"":0,""Seaweed"":1}",0,0,18.33333333,13.33333333,3.726779962,7.453559925,0,1,-5,3.726779962,1,0,0.9,1435.8215,0.884615385,2,2,1,1,2,2,2,2,2,2,2,1,2,100,0.5
3714606,26,Female,2,1,trial_7,,0,,,3170.74,,1903.84,"{""FishSmall"":1,""FishBig"":2,""CanSmall"":0,""CanBig"":0,""Seaweed"":3}","{""FishSmall"":0,""FishBig"":0,""CanSmall"":2,""CanBig"":2,""Seaweed"":2}",100,0,8.333333333,-10,8.975274679,8.164965809,3,2,-18.33333333,-0.810308869,-1,-100,0.9,1435.8215,0.884615385,2,2,1,1,2,2,2,2,2,2,2,1,2,100,0.5
3714606,26,Female,2,0,trial_8,,0,1,,1842.91,5751.765,3637.435,"{""FishSmall"":0,""FishBig"":0,""CanSmall"":2,""CanBig"":3,""Seaweed"":1}","{""FishSmall"":1,""FishBig"":0,""CanSmall"":1,""CanBig"":1,""Seaweed"":3}",100,100,-13.33333333,-3.333333333,7.453559925,9.428090416,1,3,10,1.974530491,2,0,0.9,1435.8215,0.884615385,2,2,1,1,2,2,2,2,2,2,2,1,2,100,0.5
3714606,26,Female,2,1,trial_9,,0,0,,2557.665,2173.145,5769.405,"{""FishSmall"":2,""FishBig"":1,""CanSmall"":1,""CanBig"":0,""Seaweed"":2}","{""FishSmall"":1,""FishBig"":0,""CanSmall"":1,""CanBig"":1,""Seaweed"":3}",100,100,5,-3.333333333,9.574271078,9.428090416,2,3,-8.333333333,-0.146180662,1,0,0.9,1435.8215,0.884615385,2,2,1,1,2,2,2,2,2,2,2,1,2,100,0.5
3714606,26,Female,2,1,trial_10,,1,0,,10048.07,6129.895,2037.215,"{""FishSmall"":2,""FishBig"":0,""CanSmall"":2,""CanBig"":0,""Seaweed"":2}","{""FishSmall"":2,""FishBig"":0,""CanSmall"":1,""CanBig"":0,""Seaweed"":3}",50,100,0,1.666666667,8.164965809,6.871842709,2,3,1.666666667,-1.2931231,1,50,0.9,1435.8215,0.884615385,2,2,1,1,2,2,2,2,2,2,2,1,2,100,0.5
3714606,,,,,catch_1,0,,,4345.92,,,,"{""FishSmall"":4,""FishBig"":2,""CanSmall"":0,""CanBig"":0,""Seaweed"":0}","{""FishSmall"":4,""FishBig"":2,""CanSmall"":0,""CanBig"":0,""Seaweed"":0}",0,0,,,,,,,,,,,,,,,,,,,,,,,,,,,100,0.5
3714606,26,Female,2,0,trial_11,,0,0,,13610.37,2773.27,786.66,"{""FishSmall"":1,""FishBig"":0,""CanSmall"":3,""CanBig"":1,""Seaweed"":1}","{""FishSmall"":1,""FishBig"":0,""CanSmall"":1,""CanBig"":1,""Seaweed"":3}",50,50,-6.666666667,-3.333333333,9.428090416,9.428090416,1,3,3.333333333,1.78E-15,2,0,0.9,1435.8215,0.884615385,2,2,1,1,2,2,2,2,2,2,2,1,2,100,0.5
3714606,26,Female,2,1,trial_12,,,0,,3186.48,986.565,,"{""FishSmall"":0,""FishBig"":0,""CanSmall"":2,""CanBig"":2,""Seaweed"":2}","{""FishSmall"":0,""FishBig"":0,""CanSmall"":3,""CanBig"":2,""Seaweed"":1}",0,100,-10,-11.66666667,8.164965809,6.871842709,2,1,-1.666666667,-1.2931231,-1,100,0.9,1435.8215,0.884615385,2,2,1,1,2,2,2,2,2,2,2,1,2,100,0.5
3714606,26,Female,2,0,trial_13,,0,,,7346.93,,937.245,"{""FishSmall"":0,""FishBig"":0,""CanSmall"":1,""CanBig"":3,""Seaweed"":2}","{""FishSmall"":0,""FishBig"":0,""CanSmall"":2,""CanBig"":3,""Seaweed"":1}",100,0,-11.66666667,-13.33333333,8.975274679,7.453559925,2,1,-1.666666667,-1.521714754,-1,-100,0.9,1435.8215,0.884615385,2,2,1,1,2,2,2,2,2,2,2,1,2,100,0.5
3714606,26,Female,2,0,trial_14,,0,,,707.255,,514.97,"{""FishSmall"":2,""FishBig"":1,""CanSmall"":1,""CanBig"":0,""Seaweed"":2}","{""FishSmall"":1,""FishBig"":3,""CanSmall"":0,""CanBig"":0,""Seaweed"":2}",100,0,5,11.66666667,9.574271078,8.975274679,2,2,6.666666667,-0.598996399,0,-100,0.9,1435.8215,0.884615385,2,2,1,1,2,2,2,2,2,2,2,1,2,100,0.5
3714606,26,Female,2,1,trial_15,,1,0,,916.31,1125.05,1124.8,"{""FishSmall"":3,""FishBig"":1,""CanSmall"":1,""CanBig"":0,""Seaweed"":1}","{""FishSmall"":2,""FishBig"":2,""CanSmall"":0,""CanBig"":0,""Seaweed"":2}",50,100,6.666666667,10,9.428090416,8.164965809,1,2,3.333333333,-1.263124607,1,50,0.9,1435.8215,0.884615385,2,2,1,1,2,2,2,2,2,2,2,1,2,100,0.5
3714606,26,Female,2,0,trial_16,,1,,,974.81,,665.69,"{""FishSmall"":1,""FishBig"":0,""CanSmall"":2,""CanBig"":1,""Seaweed"":2}","{""FishSmall"":1,""FishBig"":0,""CanSmall"":3,""CanBig"":0,""Seaweed"":2}",50,0,-5,-3.333333333,9.574271078,7.453559925,2,2,1.666666667,-2.120711153,0,-50,0.9,1435.8215,0.884615385,2,2,1,1,2,2,2,2,2,2,2,1,2,100,0.5
3714606,26,Female,2,0,trial_17,,1,0,,8535.01,2901.505,5788.47,"{""FishSmall"":1,""FishBig"":2,""CanSmall"":0,""CanBig"":0,""Seaweed"":3}","{""FishSmall"":1,""FishBig"":1,""CanSmall"":1,""CanBig"":0,""Seaweed"":3}",100,100,8.333333333,3.333333333,8.975274679,9.428090416,3,3,-5,0.452815737,0,0,0.9,1435.8215,0.884615385,2,2,1,1,2,2,2,2,2,2,2,1,2,100,0.5
3714606,26,Female,2,0,trial_18,,0,0,,948.965,1860.175,1381.355,"{""FishSmall"":0,""FishBig"":0,""CanSmall"":1,""CanBig"":3,""Seaweed"":2}","{""FishSmall"":3,""FishBig"":0,""CanSmall"":1,""CanBig"":0,""Seaweed"":2}",100,100,-11.66666667,3.333333333,8.975274679,7.453559925,2,2,15,-1.521714754,0,0,0.9,1435.8215,0.884615385,2,2,1,1,2,2,2,2,2,2,2,1,2,100,0.5
3714606,26,Female,2,1,trial_19,,,,,4142.285,,,"{""FishSmall"":0,""FishBig"":0,""CanSmall"":1,""CanBig"":3,""Seaweed"":2}","{""FishSmall"":0,""FishBig"":0,""CanSmall"":0,""CanBig"":4,""Seaweed"":2}",0,0,-11.66666667,-13.33333333,8.975274679,9.428090416,2,2,-1.666666667,0.452815737,0,0,0.9,1435.8215,0.884615385,2,2,1,1,2,2,2,2,2,2,2,1,2,100,0.5
3714606,26,Female,2,1,trial_20,,1,0,,3934.99,1061.06,1057.09,"{""FishSmall"":3,""FishBig"":2,""CanSmall"":0,""CanBig"":0,""Seaweed"":1}","{""FishSmall"":3,""FishBig"":0,""CanSmall"":1,""CanBig"":0,""Seaweed"":2}",100,100,11.66666667,3.333333333,6.871842709,7.453559925,1,2,-8.333333333,0.581717216,1,0,0.9,1435.8215,0.884615385,2,2,1,1,2,2,2,2,2,2,2,1,2,100,0.5
3714606,,,,,catch_2,1,,,851.13,,,,"{""FishSmall"":0,""FishBig"":0,""CanSmall"":3,""CanBig"":3,""Seaweed"":0}","{""FishSmall"":0,""FishBig"":0,""CanSmall"":3,""CanBig"":3,""Seaweed"":0}",0,0,,,,,,,,,,,,,,,,,,,,,,,,,,,100,0.5
3714606,26,Female,2,1,trial_21,,0,1,,3266.355,1117.04,1273.27,"{""FishSmall"":1,""FishBig"":0,""CanSmall"":3,""CanBig"":1,""Seaweed"":1}","{""FishSmall"":1,""FishBig"":0,""CanSmall"":2,""CanBig"":1,""Seaweed"":2}",100,100,-6.666666667,-5,9.428090416,9.574271078,1,2,1.666666667,0.146180662,1,0,0.9,1435.8215,0.884615385,2,2,1,1,2,2,2,2,2,2,2,1,2,100,0.5
3714606,26,Female,2,0,trial_22,,1,0,,767.21,1017.225,693.99,"{""FishSmall"":1,""FishBig"":0,""CanSmall"":1,""CanBig"":1,""Seaweed"":3}","{""FishSmall"":1,""FishBig"":0,""CanSmall"":3,""CanBig"":1,""Seaweed"":1}",100,100,-3.333333333,-6.666666667,9.428090416,9.428090416,3,1,-3.333333333,-1.78E-15,-2,0,0.9,1435.8215,0.884615385,2,2,1,1,2,2,2,2,2,2,2,1,2,100,0.5
3714606,26,Female,2,1,trial_23,,0,0,,670.23,1826.335,891.89,"{""FishSmall"":3,""FishBig"":1,""CanSmall"":1,""CanBig"":0,""Seaweed"":1}","{""FishSmall"":0,""FishBig"":0,""CanSmall"":3,""CanBig"":0,""Seaweed"":3}",100,50,6.666666667,-5,9.428090416,5,1,3,-11.66666667,-4.428090416,2,-50,0.9,1435.8215,0.884615385,2,2,1,1,2,2,2,2,2,2,2,1,2,100,0.5
3714606,26,Female,2,1,trial_24,,,1,,463.845,1649.43,,"{""FishSmall"":2,""FishBig"":2,""CanSmall"":0,""CanBig"":0,""Seaweed"":2}","{""FishSmall"":0,""FishBig"":0,""CanSmall"":1,""CanBig"":2,""Seaweed"":3}",0,100,10,-8.333333333,8.164965809,8.975274679,2,3,-18.33333333,0.810308869,1,100,0.9,1435.8215,0.884615385,2,2,1,1,2,2,2,2,2,2,2,1,2,100,0.5
3714606,26,Female,2,1,trial_25,,1,1,,2081.375,742.645,977.36,"{""FishSmall"":0,""FishBig"":0,""CanSmall"":1,""CanBig"":4,""Seaweed"":1}","{""FishSmall"":2,""FishBig"":2,""CanSmall"":0,""CanBig"":0,""Seaweed"":2}",0,100,-15,10,7.637626158,8.164965809,1,2,25,0.527339651,1,100,0.9,1435.8215,0.884615385,2,2,1,1,2,2,2,2,2,2,2,1,2,100,0.5
3714606,26,Female,2,0,trial_26,,0,,,462.525,,513.72,"{""FishSmall"":4,""FishBig"":1,""CanSmall"":0,""CanBig"":0,""Seaweed"":1}","{""FishSmall"":2,""FishBig"":1,""CanSmall"":1,""CanBig"":0,""Seaweed"":2}",100,0,10,5,5.773502692,9.574271078,1,2,-5,3.800768386,1,-100,0.9,1435.8215,0.884615385,2,2,1,1,2,2,2,2,2,2,2,1,2,100,0.5
3714606,26,Female,2,0,trial_27,,,,,1502.33,,,"{""FishSmall"":2,""FishBig"":3,""CanSmall"":0,""CanBig"":0,""Seaweed"":1}","{""FishSmall"":2,""FishBig"":1,""CanSmall"":1,""CanBig"":0,""Seaweed"":2}",0,0,13.33333333,5,7.453559925,9.574271078,1,2,-8.333333333,2.120711153,1,0,0.9,1435.8215,0.884615385,2,2,1,1,2,2,2,2,2,2,2,1,2,100,0.5
3714606,26,Female,2,1,trial_28,,,,,562.985,,,"{""FishSmall"":2,""FishBig"":0,""CanSmall"":2,""CanBig"":0,""Seaweed"":2}","{""FishSmall"":1,""FishBig"":1,""CanSmall"":1,""CanBig"":0,""Seaweed"":3}",0,0,0,3.333333333,8.164965809,9.428090416,2,3,3.333333333,1.263124607,1,0,0.9,1435.8215,0.884615385,2,2,1,1,2,2,2,2,2,2,2,1,2,100,0.5
3714606,26,Female,2,1,trial_29,,0,0,,999.5,673.615,741.845,"{""FishSmall"":3,""FishBig"":2,""CanSmall"":0,""CanBig"":0,""Seaweed"":1}","{""FishSmall"":1,""FishBig"":0,""CanSmall"":1,""CanBig"":1,""Seaweed"":3}",50,50,11.66666667,-3.333333333,6.871842709,9.428090416,1,3,-15,2.556247706,2,0,0.9,1435.8215,0.884615385,2,2,1,1,2,2,2,2,2,2,2,1,2,100,0.5
3714606,26,Female,2,0,trial_30,,0,0,,581.835,1645.46,661.655,"{""FishSmall"":3,""FishBig"":0,""CanSmall"":2,""CanBig"":0,""Seaweed"":1}","{""FishSmall"":3,""FishBig"":1,""CanSmall"":1,""CanBig"":0,""Seaweed"":1}",100,100,1.666666667,6.666666667,8.975274679,9.428090416,1,1,5,0.452815737,0,0,0.9,1435.8215,0.884615385,2,2,1,1,2,2,2,2,2,2,2,1,2,100,0.5
3714607,30,Female,2,1,trial_1,,,0,,7376.055,1873.17,,"{""FishSmall"":0,""FishBig"":0,""CanSmall"":2,""CanBig"":1,""Seaweed"":3}","{""FishSmall"":1,""FishBig"":2,""CanSmall"":0,""CanBig"":0,""Seaweed"":3}",50,100,-6.666666667,8.333333333,7.453559925,8.975274679,3,3,15,1.521714754,0,50,1,805.5035,1,2,2,2,2,2,2,2,2,2,2,2,2,2,100,1
3714607,30,Female,2,1,trial_2,,,,,3686.485,,,"{""FishSmall"":1,""FishBig"":0,""CanSmall"":3,""CanBig"":1,""Seaweed"":1}","{""FishSmall"":1,""FishBig"":1,""CanSmall"":1,""CanBig"":0,""Seaweed"":3}",0,0,-6.666666667,3.333333333,9.428090416,9.428090416,1,3,10,1.78E-15,2,0,1,805.5035,1,2,2,2,2,2,2,2,2,2,2,2,2,2,100,1
3714607,30,Female,2,0,trial_3,,,,,894.87,,,"{""FishSmall"":0,""FishBig"":0,""CanSmall"":2,""CanBig"":3,""Seaweed"":1}","{""FishSmall"":3,""FishBig"":0,""CanSmall"":1,""CanBig"":0,""Seaweed"":2}",50,0,-13.33333333,3.333333333,7.453559925,7.453559925,1,2,16.66666667,-8.88E-16,1,-50,1,805.5035,1,2,2,2,2,2,2,2,2,2,2,2,2,2,100,1
3714607,30,Female,2,1,trial_4,,,,,2289.935,,,"{""FishSmall"":3,""FishBig"":1,""CanSmall"":1,""CanBig"":0,""Seaweed"":1}","{""FishSmall"":1,""FishBig"":0,""CanSmall"":1,""CanBig"":1,""Seaweed"":3}",0,0,6.666666667,-3.333333333,9.428090416,9.428090416,1,3,-10,0,2,0,1,805.5035,1,2,2,2,2,2,2,2,2,2,2,2,2,2,100,1
3714607,30,Female,2,0,trial_5,,1,,,1499.1,,2181.13,"{""FishSmall"":1,""FishBig"":0,""CanSmall"":4,""CanBig"":1,""Seaweed"":0}","{""FishSmall"":3,""FishBig"":1,""CanSmall"":0,""CanBig"":0,""Seaweed"":2}",100,0,-8.333333333,8.333333333,8.975274679,6.871842709,0,2,16.66666667,-2.103431969,2,-100,1,805.5035,1,2,2,2,2,2,2,2,2,2,2,2,2,2,100,1
3714607,30,Female,2,0,trial_6,,,1,,2558.25,3410.985,,"{""FishSmall"":0,""FishBig"":0,""CanSmall"":2,""CanBig"":2,""Seaweed"":2}","{""FishSmall"":2,""FishBig"":1,""CanSmall"":1,""CanBig"":0,""Seaweed"":2}",50,50,-10,5,8.164965809,9.574271078,2,2,15,1.409305268,0,0,1,805.5035,1,2,2,2,2,2,2,2,2,2,2,2,2,2,100,1
3714607,30,Female,2,1,trial_7,,,1,,2720.315,1566.165,,"{""FishSmall"":3,""FishBig"":1,""CanSmall"":1,""CanBig"":0,""Seaweed"":1}","{""FishSmall"":1,""FishBig"":1,""CanSmall"":1,""CanBig"":0,""Seaweed"":3}",0,100,6.666666667,3.333333333,9.428090416,9.428090416,1,3,-3.333333333,0,2,100,1,805.5035,1,2,2,2,2,2,2,2,2,2,2,2,2,2,100,1
3714607,30,Female,2,0,trial_8,,0,,,755.215,,1070.235,"{""FishSmall"":2,""FishBig"":1,""CanSmall"":1,""CanBig"":0,""Seaweed"":2}","{""FishSmall"":3,""FishBig"":1,""CanSmall"":1,""CanBig"":0,""Seaweed"":1}",100,0,5,6.666666667,9.574271078,9.428090416,2,1,1.666666667,-0.146180662,-1,-100,1,805.5035,1,2,2,2,2,2,2,2,2,2,2,2,2,2,100,1
3714607,30,Female,2,0,trial_9,,1,,,2941.815,,1198.055,"{""FishSmall"":1,""FishBig"":0,""CanSmall"":2,""CanBig"":0,""Seaweed"":3}","{""FishSmall"":0,""FishBig"":0,""CanSmall"":1,""CanBig"":3,""Seaweed"":2}",100,50,-1.666666667,-11.66666667,6.871842709,8.975274679,3,2,-10,2.103431969,-1,-50,1,805.5035,1,2,2,2,2,2,2,2,2,2,2,2,2,2,100,1
3714607,30,Female,2,0,trial_10,,1,1,,1112.21,2696.555,1320.77,"{""FishSmall"":2,""FishBig"":1,""CanSmall"":0,""CanBig"":0,""Seaweed"":3}","{""FishSmall"":3,""FishBig"":0,""CanSmall"":1,""CanBig"":0,""Seaweed"":2}",100,50,6.666666667,3.333333333,7.453559925,7.453559925,3,2,-3.333333333,-8.88E-16,-1,-50,1,805.5035,1,2,2,2,2,2,2,2,2,2,2,2,2,2,100,1
3714607,,,,,catch_1,0,,,1561.74,,,,"{""FishSmall"":4,""FishBig"":2,""CanSmall"":0,""CanBig"":0,""Seaweed"":0}","{""FishSmall"":4,""FishBig"":2,""CanSmall"":0,""CanBig"":0,""Seaweed"":0}",0,0,,,,,,,,,,,,,,,,,,,,,,,,,,,100,1
3714607,30,Female,2,0,trial_11,,,,,2206.815,,,"{""FishSmall"":2,""FishBig"":1,""CanSmall"":1,""CanBig"":0,""Seaweed"":2}","{""FishSmall"":2,""FishBig"":1,""CanSmall"":1,""CanBig"":0,""Seaweed"":2}",50,0,5,5,9.574271078,9.574271078,2,2,0,0,0,-50,1,805.5035,1,2,2,2,2,2,2,2,2,2,2,2,2,2,100,1
3714607,30,Female,2,1,trial_12,,,0,,9999.05,2335.375,,"{""FishSmall"":3,""FishBig"":0,""CanSmall"":1,""CanBig"":0,""Seaweed"":2}","{""FishSmall"":3,""FishBig"":2,""CanSmall"":0,""CanBig"":0,""Seaweed"":1}",50,50,3.333333333,11.66666667,7.453559925,6.871842709,2,1,8.333333333,-0.581717216,-1,0,1,805.5035,1,2,2,2,2,2,2,2,2,2,2,2,2,2,100,1
3714607,30,Female,2,1,trial_13,,,1,,1267.425,1036.115,,"{""FishSmall"":1,""FishBig"":0,""CanSmall"":1,""CanBig"":1,""Seaweed"":3}","{""FishSmall"":0,""FishBig"":0,""CanSmall"":2,""CanBig"":2,""Seaweed"":2}",0,50,-3.333333333,-10,9.428090416,8.164965809,3,2,-6.666666667,-1.263124607,-1,50,1,805.5035,1,2,2,2,2,2,2,2,2,2,2,2,2,2,100,1
3714607,30,Female,2,0,trial_14,,1,,,357.985,,1010.955,"{""FishSmall"":1,""FishBig"":1,""CanSmall"":1,""CanBig"":0,""Seaweed"":3}","{""FishSmall"":1,""FishBig"":0,""CanSmall"":2,""CanBig"":1,""Seaweed"":2}",100,0,3.333333333,-5,9.428090416,9.574271078,3,2,-8.333333333,0.146180662,-1,-100,1,805.5035,1,2,2,2,2,2,2,2,2,2,2,2,2,2,100,1
3714607,30,Female,2,0,trial_15,,0,,,453.2100001,,1579.6,"{""FishSmall"":2,""FishBig"":0,""CanSmall"":1,""CanBig"":0,""Seaweed"":3}","{""FishSmall"":1,""FishBig"":0,""CanSmall"":1,""CanBig"":1,""Seaweed"":3}",100,50,1.666666667,-3.333333333,6.871842709,9.428090416,3,3,-5,2.556247706,0,-50,1,805.5035,1,2,2,2,2,2,2,2,2,2,2,2,2,2,100,1
3714607,30,Female,2,0,trial_16,,1,,,2606.325,,1297.415,"{""FishSmall"":1,""FishBig"":0,""CanSmall"":1,""CanBig"":1,""Seaweed"":3}","{""FishSmall"":1,""FishBig"":1,""CanSmall"":1,""CanBig"":0,""Seaweed"":3}",100,0,-3.333333333,3.333333333,9.428090416,9.428090416,3,3,6.666666667,0,0,-100,1,805.5035,1,2,2,2,2,2,2,2,2,2,2,2,2,2,100,1
3714607,30,Female,2,0,trial_17,,0,,,1403.245,,1123.035,"{""FishSmall"":3,""FishBig"":0,""CanSmall"":0,""CanBig"":0,""Seaweed"":3}","{""FishSmall"":1,""FishBig"":0,""CanSmall"":1,""CanBig"":1,""Seaweed"":3}",100,0,5,-3.333333333,5,9.428090416,3,3,-8.333333333,4.428090416,0,-100,1,805.5035,1,2,2,2,2,2,2,2,2,2,2,2,2,2,100,1
3714607,30,Female,2,1,trial_18,,1,1,,2051.24,1115.15,2379.83,"{""FishSmall"":1,""FishBig"":1,""CanSmall"":1,""CanBig"":0,""Seaweed"":3}","{""FishSmall"":1,""FishBig"":0,""CanSmall"":3,""CanBig"":0,""Seaweed"":2}",100,100,3.333333333,-3.333333333,9.428090416,7.453559925,3,2,-6.666666667,-1.974530491,-1,0,1,805.5035,1,2,2,2,2,2,2,2,2,2,2,2,2,2,100,1
3714607,30,Female,2,0,trial_19,,1,,,365.7450001,,1495.95,"{""FishSmall"":1,""FishBig"":0,""CanSmall"":2,""CanBig"":1,""Seaweed"":2}","{""FishSmall"":2,""FishBig"":1,""CanSmall"":1,""CanBig"":0,""Seaweed"":2}",50,0,-5,5,9.574271078,9.574271078,2,2,10,0,0,-50,1,805.5035,1,2,2,2,2,2,2,2,2,2,2,2,2,2,100,1
3714607,30,Female,2,0,trial_20,,1,,,1892.675,,1618.96,"{""FishSmall"":2,""FishBig"":0,""CanSmall"":1,""CanBig"":0,""Seaweed"":3}","{""FishSmall"":2,""FishBig"":0,""CanSmall"":1,""CanBig"":0,""Seaweed"":3}",50,0,1.666666667,1.666666667,6.871842709,6.871842709,3,3,0,0,0,-50,1,805.5035,1,2,2,2,2,2,2,2,2,2,2,2,2,2,100,1
3714607,,,,,catch_2,1,,,1471.105,,,,"{""FishSmall"":0,""FishBig"":0,""CanSmall"":3,""CanBig"":3,""Seaweed"":0}","{""FishSmall"":0,""FishBig"":0,""CanSmall"":3,""CanBig"":3,""Seaweed"":0}",0,0,,,,,,,,,,,,,,,,,,,,,,,,,,,100,1
3714607,30,Female,2,0,trial_21,,,,,964.3549999,,,"{""FishSmall"":3,""FishBig"":1,""CanSmall"":0,""CanBig"":0,""Seaweed"":2}","{""FishSmall"":1,""FishBig"":0,""CanSmall"":2,""CanBig"":1,""Seaweed"":2}",50,0,8.333333333,-5,6.871842709,9.574271078,2,2,-13.33333333,2.702428368,0,-50,1,805.5035,1,2,2,2,2,2,2,2,2,2,2,2,2,2,100,1
3714607,30,Female,2,1,trial_22,,1,,,2660.27,,2512.965,"{""FishSmall"":0,""FishBig"":0,""CanSmall"":2,""CanBig"":4,""Seaweed"":0}","{""FishSmall"":2,""FishBig"":3,""CanSmall"":0,""CanBig"":0,""Seaweed"":1}",100,0,-16.66666667,13.33333333,4.714045208,7.453559925,0,1,30,2.739514717,1,-100,1,805.5035,1,2,2,2,2,2,2,2,2,2,2,2,2,2,100,1
3714607,30,Female,2,0,trial_23,,,1,,2196.47,1043.17,,"{""FishSmall"":4,""FishBig"":0,""CanSmall"":1,""CanBig"":0,""Seaweed"":1}","{""FishSmall"":0,""FishBig"":0,""CanSmall"":2,""CanBig"":1,""Seaweed"":3}",50,100,5,-6.666666667,7.637626158,7.453559925,1,3,-11.66666667,-0.184066233,2,50,1,805.5035,1,2,2,2,2,2,2,2,2,2,2,2,2,2,100,1
3714607,30,Female,2,1,trial_24,,,,,2203.715,,,"{""FishSmall"":2,""FishBig"":1,""CanSmall"":1,""CanBig"":0,""Seaweed"":2}","{""FishSmall"":3,""FishBig"":0,""CanSmall"":2,""CanBig"":0,""Seaweed"":1}",0,0,5,1.666666667,9.574271078,8.975274679,2,1,-3.333333333,-0.598996399,-1,0,1,805.5035,1,2,2,2,2,2,2,2,2,2,2,2,2,2,100,1
3714607,30,Female,2,1,trial_25,,,1,,822.7400001,1058.39,,"{""FishSmall"":1,""FishBig"":0,""CanSmall"":2,""CanBig"":1,""Seaweed"":2}","{""FishSmall"":1,""FishBig"":0,""CanSmall"":1,""CanBig"":1,""Seaweed"":3}",0,50,-5,-3.333333333,9.574271078,9.428090416,2,3,1.666666667,-0.146180662,1,50,1,805.5035,1,2,2,2,2,2,2,2,2,2,2,2,2,2,100,1
3714607,30,Female,2,1,trial_26,,,,,661.345,,,"{""FishSmall"":5,""FishBig"":1,""CanSmall"":0,""CanBig"":0,""Seaweed"":0}","{""FishSmall"":3,""FishBig"":1,""CanSmall"":1,""CanBig"":0,""Seaweed"":1}",0,0,11.66666667,6.666666667,3.726779962,9.428090416,0,1,-5,5.701310453,1,0,1,805.5035,1,2,2,2,2,2,2,2,2,2,2,2,2,2,100,1
3714607,30,Female,2,1,trial_27,,1,1,,397.85,1330.34,2146.265,"{""FishSmall"":0,""FishBig"":0,""CanSmall"":2,""CanBig"":1,""Seaweed"":3}","{""FishSmall"":1,""FishBig"":0,""CanSmall"":1,""CanBig"":1,""Seaweed"":3}",50,100,-6.666666667,-3.333333333,7.453559925,9.428090416,3,3,3.333333333,1.974530491,0,50,1,805.5035,1,2,2,2,2,2,2,2,2,2,2,2,2,2,100,1
3714607,30,Female,2,0,trial_28,,0,1,,1398.46,1322.255,1002.07,"{""FishSmall"":3,""FishBig"":1,""CanSmall"":1,""CanBig"":0,""Seaweed"":1}","{""FishSmall"":1,""FishBig"":0,""CanSmall"":2,""CanBig"":1,""Seaweed"":2}",100,100,6.666666667,-5,9.428090416,9.574271078,1,2,-11.66666667,0.146180662,1,0,1,805.5035,1,2,2,2,2,2,2,2,2,2,2,2,2,2,100,1
3714607,30,Female,2,1,trial_29,,,1,,485.84,755.84,,"{""FishSmall"":1,""FishBig"":0,""CanSmall"":2,""CanBig"":1,""Seaweed"":2}","{""FishSmall"":0,""FishBig"":0,""CanSmall"":3,""CanBig"":2,""Seaweed"":1}",0,100,-5,-11.66666667,9.574271078,6.871842709,2,1,-6.666666667,-2.702428368,-1,100,1,805.5035,1,2,2,2,2,2,2,2,2,2,2,2,2,2,100,1
3714607,30,Female,2,0,trial_30,,0,1,,370.215,1139.58,962.98,"{""FishSmall"":3,""FishBig"":1,""CanSmall"":0,""CanBig"":0,""Seaweed"":2}","{""FishSmall"":0,""FishBig"":0,""CanSmall"":3,""CanBig"":1,""Seaweed"":2}",100,100,8.333333333,-8.333333333,6.871842709,6.871842709,2,2,-16.66666667,0,0,0,1,805.5035,1,2,2,2,2,2,2,2,2,2,2,2,2,2,100,1
3714609,19,Male,1,0,trial_1,,1,,,7847,,969,"{""FishSmall"":1,""FishBig"":1,""CanSmall"":1,""CanBig"":0,""Seaweed"":3}","{""FishSmall"":2,""FishBig"":0,""CanSmall"":2,""CanBig"":0,""Seaweed"":2}",100,0,3.333333333,0,9.428090416,8.164965809,3,2,-3.333333333,-1.263124607,-1,-100,1,934.7,0.961538462,2,2,2,2,2,2,1,2,2,2,2,2,2,100,1
3714609,19,Male,1,1,trial_2,,0,,,4017,,1963,"{""FishSmall"":0,""FishBig"":4,""CanSmall"":0,""CanBig"":0,""Seaweed"":2}","{""FishSmall"":2,""FishBig"":0,""CanSmall"":4,""CanBig"":0,""Seaweed"":0}",100,50,13.33333333,-3.333333333,9.428090416,9.428090416,2,0,-16.66666667,0,-2,-50,1,934.7,0.961538462,2,2,2,2,2,2,1,2,2,2,2,2,2,100,1
3714609,19,Male,1,0,trial_3,,,,,5731,,,"{""FishSmall"":0,""FishBig"":0,""CanSmall"":2,""CanBig"":1,""Seaweed"":3}","{""FishSmall"":0,""FishBig"":0,""CanSmall"":3,""CanBig"":0,""Seaweed"":3}",0,50,-6.666666667,-5,7.453559925,5,3,3,1.666666667,-2.453559925,0,50,1,934.7,0.961538462,2,2,2,2,2,2,1,2,2,2,2,2,2,100,1
3714609,19,Male,1,1,trial_4,,,1,,2820,2344,,"{""FishSmall"":1,""FishBig"":0,""CanSmall"":2,""CanBig"":1,""Seaweed"":2}","{""FishSmall"":1,""FishBig"":0,""CanSmall"":2,""CanBig"":1,""Seaweed"":2}",0,50,-5,-5,9.574271078,9.574271078,2,2,0,0,0,50,1,934.7,0.961538462,2,2,2,2,2,2,1,2,2,2,2,2,2,100,1
3714609,19,Male,1,0,trial_5,,,0,,2413,1682,,"{""FishSmall"":0,""FishBig"":1,""CanSmall"":0,""CanBig"":1,""Seaweed"":4}","{""FishSmall"":4,""FishBig"":2,""CanSmall"":0,""CanBig"":0,""Seaweed"":0}",50,100,0,13.33333333,11.54700538,4.714045208,4,0,13.33333333,-6.832960176,-4,50,1,934.7,0.961538462,2,2,2,2,2,2,1,2,2,2,2,2,2,100,1
3714609,19,Male,1,1,trial_6,,,1,,1019,857,,"{""FishSmall"":0,""FishBig"":0,""CanSmall"":3,""CanBig"":1,""Seaweed"":2}","{""FishSmall"":1,""FishBig"":0,""CanSmall"":1,""CanBig"":1,""Seaweed"":3}",0,100,-8.333333333,-3.333333333,6.871842709,9.428090416,2,3,5,2.556247706,1,100,1,934.7,0.961538462,2,2,2,2,2,2,1,2,2,2,2,2,2,100,1
3714609,19,Male,1,1,trial_7,,,0,,4905,2208,,"{""FishSmall"":1,""FishBig"":3,""CanSmall"":0,""CanBig"":0,""Seaweed"":2}","{""FishSmall"":2,""FishBig"":1,""CanSmall"":1,""CanBig"":0,""Seaweed"":2}",0,50,11.66666667,5,8.975274679,9.574271078,2,2,-6.666666667,0.598996399,0,50,1,934.7,0.961538462,2,2,2,2,2,2,1,2,2,2,2,2,2,100,1
3714609,19,Male,1,1,trial_8,,,0,,3072,802,,"{""FishSmall"":0,""FishBig"":0,""CanSmall"":2,""CanBig"":3,""Seaweed"":1}","{""FishSmall"":4,""FishBig"":1,""CanSmall"":1,""CanBig"":0,""Seaweed"":0}",0,100,-13.33333333,8.333333333,7.453559925,8.975274679,1,0,21.66666667,1.521714754,-1,100,1,934.7,0.961538462,2,2,2,2,2,2,1,2,2,2,2,2,2,100,1
3714609,19,Male,1,1,trial_9,,,,,3916,,,"{""FishSmall"":1,""FishBig"":3,""CanSmall"":0,""CanBig"":0,""Seaweed"":2}","{""FishSmall"":0,""FishBig"":0,""CanSmall"":1,""CanBig"":3,""Seaweed"":2}",0,0,11.66666667,-11.66666667,8.975274679,8.975274679,2,2,-23.33333333,0,0,0,1,934.7,0.961538462,2,2,2,2,2,2,1,2,2,2,2,2,2,100,1
3714609,19,Male,1,1,trial_10,,,1,,7043,944,,"{""FishSmall"":2,""FishBig"":2,""CanSmall"":0,""CanBig"":0,""Seaweed"":2}","{""FishSmall"":0,""FishBig"":0,""CanSmall"":2,""CanBig"":2,""Seaweed"":2}",50,100,10,-10,8.164965809,8.164965809,2,2,-20,0,0,50,1,934.7,0.961538462,2,2,2,2,2,2,1,2,2,2,2,2,2,100,1
3714609,,,,,catch_1,0,,,1102,,,,"{""FishSmall"":4,""FishBig"":2,""CanSmall"":0,""CanBig"":0,""Seaweed"":0}","{""FishSmall"":4,""FishBig"":2,""CanSmall"":0,""CanBig"":0,""Seaweed"":0}",0,0,,,,,,,,,,,,,,,,,,,,,,,,,,,100,1
3714609,19,Male,1,1,trial_11,,,0,,4829,1477,,"{""FishSmall"":4,""FishBig"":0,""CanSmall"":2,""CanBig"":0,""Seaweed"":0}","{""FishSmall"":2,""FishBig"":2,""CanSmall"":0,""CanBig"":0,""Seaweed"":2}",0,100,3.333333333,10,9.428090416,8.164965809,0,2,6.666666667,-1.263124607,2,100,1,934.7,0.961538462,2,2,2,2,2,2,1,2,2,2,2,2,2,100,1
3714609,19,Male,1,0,trial_12,,,0,,9525,3699,,"{""FishSmall"":2,""FishBig"":0,""CanSmall"":2,""CanBig"":0,""Seaweed"":2}","{""FishSmall"":2,""FishBig"":0,""CanSmall"":1,""CanBig"":0,""Seaweed"":3}",50,100,0,1.666666667,8.164965809,6.871842709,2,3,1.666666667,-1.2931231,1,50,1,934.7,0.961538462,2,2,2,2,2,2,1,2,2,2,2,2,2,100,1
3714609,19,Male,1,0,trial_13,,1,,,1134,,871,"{""FishSmall"":0,""FishBig"":0,""CanSmall"":2,""CanBig"":2,""Seaweed"":2}","{""FishSmall"":0,""FishBig"":0,""CanSmall"":3,""CanBig"":3,""Seaweed"":0}",100,50,-10,-15,8.164965809,5,2,0,-5,-3.164965809,-2,-50,1,934.7,0.961538462,2,2,2,2,2,2,1,2,2,2,2,2,2,100,1
3714609,19,Male,1,0,trial_14,,0,,,3477,,2012,"{""FishSmall"":3,""FishBig"":0,""CanSmall"":1,""CanBig"":0,""Seaweed"":2}","{""FishSmall"":0,""FishBig"":0,""CanSmall"":3,""CanBig"":2,""Seaweed"":1}",50,0,3.333333333,-11.66666667,7.453559925,6.871842709,2,1,-15,-0.581717216,-1,-50,1,934.7,0.961538462,2,2,2,2,2,2,1,2,2,2,2,2,2,100,1
3714609,19,Male,1,0,trial_15,,1,,,5205,,1031,"{""FishSmall"":1,""FishBig"":0,""CanSmall"":3,""CanBig"":1,""Seaweed"":1}","{""FishSmall"":0,""FishBig"":0,""CanSmall"":2,""CanBig"":4,""Seaweed"":0}",100,0,-6.666666667,-16.66666667,9.428090416,4.714045208,1,0,-10,-4.714045208,-1,-100,1,934.7,0.961538462,2,2,2,2,2,2,1,2,2,2,2,2,2,100,1
3714609,19,Male,1,0,trial_16,,0,,,2849,,1542,"{""FishSmall"":2,""FishBig"":1,""CanSmall"":1,""CanBig"":0,""Seaweed"":2}","{""FishSmall"":2,""FishBig"":1,""CanSmall"":1,""CanBig"":0,""Seaweed"":2}",100,0,5,5,9.574271078,9.574271078,2,2,0,0,0,-100,1,934.7,0.961538462,2,2,2,2,2,2,1,2,2,2,2,2,2,100,1
3714609,19,Male,1,0,trial_17,,1,,,2417,,1787,"{""FishSmall"":0,""FishBig"":0,""CanSmall"":2,""CanBig"":1,""Seaweed"":3}","{""FishSmall"":4,""FishBig"":1,""CanSmall"":1,""CanBig"":0,""Seaweed"":0}",50,0,-6.666666667,8.333333333,7.453559925,8.975274679,3,0,15,1.521714754,-3,-50,1,934.7,0.961538462,2,2,2,2,2,2,1,2,2,2,2,2,2,100,1
3714609,19,Male,1,1,trial_18,,0,1,,3653,1479,2826,"{""FishSmall"":2,""FishBig"":0,""CanSmall"":1,""CanBig"":0,""Seaweed"":3}","{""FishSmall"":1,""FishBig"":0,""CanSmall"":2,""CanBig"":1,""Seaweed"":2}",50,100,1.666666667,-5,6.871842709,9.574271078,3,2,-6.666666667,2.702428368,-1,50,1,934.7,0.961538462,2,2,2,2,2,2,1,2,2,2,2,2,2,100,1
3714609,19,Male,1,0,trial_19,,,,,775,,,"{""FishSmall"":2,""FishBig"":1,""CanSmall"":1,""CanBig"":0,""Seaweed"":2}","{""FishSmall"":1,""FishBig"":2,""CanSmall"":0,""CanBig"":0,""Seaweed"":3}",50,0,5,8.333333333,9.574271078,8.975274679,2,3,3.333333333,-0.598996399,1,-50,1,934.7,0.961538462,2,2,2,2,2,2,1,2,2,2,2,2,2,100,1
3714609,19,Male,1,1,trial_20,,,,,897,,,"{""FishSmall"":3,""FishBig"":1,""CanSmall"":1,""CanBig"":0,""Seaweed"":1}","{""FishSmall"":1,""FishBig"":0,""CanSmall"":1,""CanBig"":1,""Seaweed"":3}",0,50,6.666666667,-3.333333333,9.428090416,9.428090416,1,3,-10,0,2,50,1,934.7,0.961538462,2,2,2,2,2,2,1,2,2,2,2,2,2,100,1
3714609,,,,,catch_2,1,,,889,,,,"{""FishSmall"":0,""FishBig"":0,""CanSmall"":3,""CanBig"":3,""Seaweed"":0}","{""FishSmall"":0,""FishBig"":0,""CanSmall"":3,""CanBig"":3,""Seaweed"":0}",0,0,,,,,,,,,,,,,,,,,,,,,,,,,,,100,1
3714609,19,Male,1,1,trial_21,,,,,4522,,,"{""FishSmall"":4,""FishBig"":0,""CanSmall"":1,""CanBig"":0,""Seaweed"":1}","{""FishSmall"":2,""FishBig"":0,""CanSmall"":2,""CanBig"":0,""Seaweed"":2}",0,0,5,0,7.637626158,8.164965809,1,2,-5,0.527339651,1,0,1,934.7,0.961538462,2,2,2,2,2,2,1,2,2,2,2,2,2,100,1
3714609,19,Male,1,0,trial_22,,0,0,,996,2217,713,"{""FishSmall"":2,""FishBig"":1,""CanSmall"":1,""CanBig"":0,""Seaweed"":2}","{""FishSmall"":3,""FishBig"":1,""CanSmall"":1,""CanBig"":0,""Seaweed"":1}",100,50,5,6.666666667,9.574271078,9.428090416,2,1,1.666666667,-0.146180662,-1,-50,1,934.7,0.961538462,2,2,2,2,2,2,1,2,2,2,2,2,2,100,1
3714609,19,Male,1,1,trial_23,,1,1,,4368,788,1391,"{""FishSmall"":2,""FishBig"":0,""CanSmall"":4,""CanBig"":0,""Seaweed"":0}","{""FishSmall"":1,""FishBig"":0,""CanSmall"":3,""CanBig"":1,""Seaweed"":1}",50,100,-3.333333333,-6.666666667,9.428090416,9.428090416,0,1,-3.333333333,-1.78E-15,1,50,1,934.7,0.961538462,2,2,2,2,2,2,1,2,2,2,2,2,2,100,1
3714609,19,Male,1,0,trial_24,,,,,3890,,,"{""FishSmall"":3,""FishBig"":1,""CanSmall"":1,""CanBig"":0,""Seaweed"":1}","{""FishSmall"":4,""FishBig"":2,""CanSmall"":0,""CanBig"":0,""Seaweed"":0}",50,50,6.666666667,13.33333333,9.428090416,4.714045208,1,0,6.666666667,-4.714045208,-1,0,1,934.7,0.961538462,2,2,2,2,2,2,1,2,2,2,2,2,2,100,1
3714609,19,Male,1,0,trial_25,,1,,,1343,,723,"{""FishSmall"":0,""FishBig"":0,""CanSmall"":3,""CanBig"":1,""Seaweed"":2}","{""FishSmall"":0,""FishBig"":0,""CanSmall"":2,""CanBig"":3,""Seaweed"":1}",100,0,-8.333333333,-13.33333333,6.871842709,7.453559925,2,1,-5,0.581717216,-1,-100,1,934.7,0.961538462,2,2,2,2,2,2,1,2,2,2,2,2,2,100,1
3714609,19,Male,1,1,trial_26,,0,,,3175,,583,"{""FishSmall"":2,""FishBig"":2,""CanSmall"":0,""CanBig"":0,""Seaweed"":2}","{""FishSmall"":5,""FishBig"":0,""CanSmall"":1,""CanBig"":0,""Seaweed"":0}",100,50,10,6.666666667,8.164965809,7.453559925,2,0,-3.333333333,-0.711405884,-2,-50,1,934.7,0.961538462,2,2,2,2,2,2,1,2,2,2,2,2,2,100,1
3714609,19,Male,1,1,trial_27,,0,1,,1073,649,1445,"{""FishSmall"":3,""FishBig"":2,""CanSmall"":0,""CanBig"":0,""Seaweed"":1}","{""FishSmall"":0,""FishBig"":0,""CanSmall"":2,""CanBig"":2,""Seaweed"":2}",100,100,11.66666667,-10,6.871842709,8.164965809,1,2,-21.66666667,1.2931231,1,0,1,934.7,0.961538462,2,2,2,2,2,2,1,2,2,2,2,2,2,100,1
3714609,19,Male,1,1,trial_28,,1,1,,3066,1815,1067,"{""FishSmall"":0,""FishBig"":0,""CanSmall"":2,""CanBig"":2,""Seaweed"":2}","{""FishSmall"":1,""FishBig"":0,""CanSmall"":3,""CanBig"":0,""Seaweed"":2}",50,100,-10,-3.333333333,8.164965809,7.453559925,2,2,6.666666667,-0.711405884,0,50,1,934.7,0.961538462,2,2,2,2,2,2,1,2,2,2,2,2,2,100,1
3714609,19,Male,1,0,trial_29,,1,,,4562,,820,"{""FishSmall"":1,""FishBig"":0,""CanSmall"":1,""CanBig"":1,""Seaweed"":3}","{""FishSmall"":2,""FishBig"":1,""CanSmall"":1,""CanBig"":0,""Seaweed"":2}",100,50,-3.333333333,5,9.428090416,9.574271078,3,2,8.333333333,0.146180662,-1,-50,1,934.7,0.961538462,2,2,2,2,2,2,1,2,2,2,2,2,2,100,1
3714609,19,Male,1,1,trial_30,,,1,,720,1438,,"{""FishSmall"":2,""FishBig"":1,""CanSmall"":1,""CanBig"":0,""Seaweed"":2}","{""FishSmall"":1,""FishBig"":0,""CanSmall"":2,""CanBig"":0,""Seaweed"":3}",0,100,5,-1.666666667,9.574271078,6.871842709,2,3,-6.666666667,-2.702428368,1,100,1,934.7,0.961538462,2,2,2,2,2,2,1,2,2,2,2,2,2,100,1
3714610,26,Male,1,1,trial_1,,1,,,4244.125,,8177.52,"{""FishSmall"":3,""FishBig"":0,""CanSmall"":1,""CanBig"":0,""Seaweed"":2}","{""FishSmall"":2,""FishBig"":1,""CanSmall"":0,""CanBig"":0,""Seaweed"":3}",100,50,3.333333333,6.666666667,7.453559925,7.453559925,2,3,3.333333333,8.88E-16,1,-50,1,996.608,1,2,2,2,2,2,2,2,2,2,2,2,2,2,100,0.6
3714610,26,Male,1,0,trial_2,,0,1,,4303.445,2578.255,1666.98,"{""FishSmall"":2,""FishBig"":1,""CanSmall"":1,""CanBig"":0,""Seaweed"":2}","{""FishSmall"":1,""FishBig"":0,""CanSmall"":3,""CanBig"":1,""Seaweed"":1}",100,100,5,-6.666666667,9.574271078,9.428090416,2,1,-11.66666667,-0.146180662,-1,0,1,996.608,1,2,2,2,2,2,2,2,2,2,2,2,2,2,100,0.6
3714610,26,Male,1,1,trial_3,,,,,6161.35,,,"{""FishSmall"":2,""FishBig"":1,""CanSmall"":1,""CanBig"":0,""Seaweed"":2}","{""FishSmall"":1,""FishBig"":1,""CanSmall"":1,""CanBig"":0,""Seaweed"":3}",0,50,5,3.333333333,9.574271078,9.428090416,2,3,-1.666666667,-0.146180662,1,50,1,996.608,1,2,2,2,2,2,2,2,2,2,2,2,2,2,100,0.6
3714610,26,Male,1,0,trial_4,,1,,,5029.89,,1994.915,"{""FishSmall"":1,""FishBig"":0,""CanSmall"":3,""CanBig"":0,""Seaweed"":2}","{""FishSmall"":1,""FishBig"":0,""CanSmall"":3,""CanBig"":0,""Seaweed"":2}",50,0,-3.333333333,-3.333333333,7.453559925,7.453559925,2,2,0,0,0,-50,1,996.608,1,2,2,2,2,2,2,2,2,2,2,2,2,2,100,0.6
3714610,26,Male,1,1,trial_5,,,0,,4985.065,2579.145,,"{""FishSmall"":1,""FishBig"":0,""CanSmall"":2,""CanBig"":1,""Seaweed"":2}","{""FishSmall"":3,""FishBig"":0,""CanSmall"":1,""CanBig"":0,""Seaweed"":2}",0,50,-5,3.333333333,9.574271078,7.453559925,2,2,8.333333333,-2.120711153,0,50,1,996.608,1,2,2,2,2,2,2,2,2,2,2,2,2,2,100,0.6
3714610,26,Male,1,1,trial_6,,,,,4686.95,,,"{""FishSmall"":0,""FishBig"":0,""CanSmall"":2,""CanBig"":2,""Seaweed"":2}","{""FishSmall"":2,""FishBig"":1,""CanSmall"":0,""CanBig"":0,""Seaweed"":3}",50,0,-10,6.666666667,8.164965809,7.453559925,2,3,16.66666667,-0.711405884,1,-50,1,996.608,1,2,2,2,2,2,2,2,2,2,2,2,2,2,100,0.6
3714610,26,Male,1,1,trial_7,,1,0,,1668.1,550.515,2145.21,"{""FishSmall"":3,""FishBig"":1,""CanSmall"":1,""CanBig"":0,""Seaweed"":1}","{""FishSmall"":3,""FishBig"":1,""CanSmall"":1,""CanBig"":0,""Seaweed"":1}",100,100,6.666666667,6.666666667,9.428090416,9.428090416,1,1,0,0,0,0,1,996.608,1,2,2,2,2,2,2,2,2,2,2,2,2,2,100,0.6
3714610,26,Male,1,0,trial_8,,1,1,,1086.155,1274.34,1057.34,"{""FishSmall"":2,""FishBig"":0,""CanSmall"":2,""CanBig"":0,""Seaweed"":2}","{""FishSmall"":1,""FishBig"":0,""CanSmall"":2,""CanBig"":1,""Seaweed"":2}",100,100,0,-5,8.164965809,9.574271078,2,2,-5,1.409305268,0,0,1,996.608,1,2,2,2,2,2,2,2,2,2,2,2,2,2,100,0.6
3714610,26,Male,1,0,trial_9,,0,,,573.705,,1261.99,"{""FishSmall"":2,""FishBig"":1,""CanSmall"":1,""CanBig"":0,""Seaweed"":2}","{""FishSmall"":1,""FishBig"":0,""CanSmall"":3,""CanBig"":0,""Seaweed"":2}",100,50,5,-3.333333333,9.574271078,7.453559925,2,2,-8.333333333,-2.120711153,0,-50,1,996.608,1,2,2,2,2,2,2,2,2,2,2,2,2,2,100,0.6
3714610,26,Male,1,1,trial_10,,1,1,,1716.085,1349.5,1934.67,"{""FishSmall"":0,""FishBig"":0,""CanSmall"":1,""CanBig"":5,""Seaweed"":0}","{""FishSmall"":0,""FishBig"":0,""CanSmall"":2,""CanBig"":1,""Seaweed"":3}",100,50,-18.33333333,-6.666666667,3.726779962,7.453559925,0,3,11.66666667,3.726779962,3,-50,1,996.608,1,2,2,2,2,2,2,2,2,2,2,2,2,2,100,0.6
3714610,,,,,catch_1,0,,,1617.355,,,,"{""FishSmall"":4,""FishBig"":2,""CanSmall"":0,""CanBig"":0,""Seaweed"":0}","{""FishSmall"":4,""FishBig"":2,""CanSmall"":0,""CanBig"":0,""Seaweed"":0}",0,0,,,,,,,,,,,,,,,,,,,,,,,,,,,100,0.6
3714610,26,Male,1,1,trial_11,,,1,,3973,2035.115,,"{""FishSmall"":3,""FishBig"":3,""CanSmall"":0,""CanBig"":0,""Seaweed"":0}","{""FishSmall"":1,""FishBig"":0,""CanSmall"":3,""CanBig"":1,""Seaweed"":1}",0,50,15,-6.666666667,5,9.428090416,0,1,-21.66666667,4.428090416,1,50,1,996.608,1,2,2,2,2,2,2,2,2,2,2,2,2,2,100,0.6
3714610,26,Male,1,1,trial_12,,,0,,3291.08,838.055,,"{""FishSmall"":1,""FishBig"":1,""CanSmall"":1,""CanBig"":0,""Seaweed"":3}","{""FishSmall"":1,""FishBig"":3,""CanSmall"":0,""CanBig"":0,""Seaweed"":2}",0,100,3.333333333,11.66666667,9.428090416,8.975274679,3,2,8.333333333,-0.452815737,-1,100,1,996.608,1,2,2,2,2,2,2,2,2,2,2,2,2,2,100,0.6
3714610,26,Male,1,0,trial_13,,1,,,2599.765,,805.625,"{""FishSmall"":0,""FishBig"":0,""CanSmall"":2,""CanBig"":2,""Seaweed"":2}","{""FishSmall"":1,""FishBig"":0,""CanSmall"":3,""CanBig"":1,""Seaweed"":1}",100,0,-10,-6.666666667,8.164965809,9.428090416,2,1,3.333333333,1.263124607,-1,-100,1,996.608,1,2,2,2,2,2,2,2,2,2,2,2,2,2,100,0.6
3714610,26,Male,1,1,trial_14,,1,,,2765.855,,2654.115,"{""FishSmall"":1,""FishBig"":0,""CanSmall"":1,""CanBig"":1,""Seaweed"":3}","{""FishSmall"":0,""FishBig"":0,""CanSmall"":3,""CanBig"":1,""Seaweed"":2}",100,0,-3.333333333,-8.333333333,9.428090416,6.871842709,3,2,-5,-2.556247706,-1,-100,1,996.608,1,2,2,2,2,2,2,2,2,2,2,2,2,2,100,0.6
3714610,26,Male,1,0,trial_15,,1,,,8075.185,,1286.045,"{""FishSmall"":1,""FishBig"":0,""CanSmall"":3,""CanBig"":0,""Seaweed"":2}","{""FishSmall"":3,""FishBig"":1,""CanSmall"":1,""CanBig"":0,""Seaweed"":1}",50,0,-3.333333333,6.666666667,7.453559925,9.428090416,2,1,10,1.974530491,-1,-50,1,996.608,1,2,2,2,2,2,2,2,2,2,2,2,2,2,100,0.6
3714610,26,Male,1,1,trial_16,,,,,5277.945,,,"{""FishSmall"":4,""FishBig"":0,""CanSmall"":1,""CanBig"":0,""Seaweed"":1}","{""FishSmall"":2,""FishBig"":0,""CanSmall"":1,""CanBig"":0,""Seaweed"":3}",0,0,5,1.666666667,7.637626158,6.871842709,1,3,-3.333333333,-0.765783449,2,0,1,996.608,1,2,2,2,2,2,2,2,2,2,2,2,2,2,100,0.6
3714610,26,Male,1,1,trial_17,,,1,,2091.235,2162.105,,"{""FishSmall"":0,""FishBig"":0,""CanSmall"":5,""CanBig"":0,""Seaweed"":1}","{""FishSmall"":1,""FishBig"":0,""CanSmall"":2,""CanBig"":1,""Seaweed"":2}",0,50,-8.333333333,-5,3.726779962,9.574271078,1,2,3.333333333,5.847491115,1,50,1,996.608,1,2,2,2,2,2,2,2,2,2,2,2,2,2,100,0.6
3714610,26,Male,1,1,trial_18,,,,,869.12,,,"{""FishSmall"":3,""FishBig"":2,""CanSmall"":0,""CanBig"":0,""Seaweed"":1}","{""FishSmall"":1,""FishBig"":3,""CanSmall"":0,""CanBig"":0,""Seaweed"":2}",0,0,11.66666667,11.66666667,6.871842709,8.975274679,1,2,0,2.103431969,1,0,1,996.608,1,2,2,2,2,2,2,2,2,2,2,2,2,2,100,0.6
3714610,26,Male,1,0,trial_19,,,,,2349.195,,,"{""FishSmall"":0,""FishBig"":0,""CanSmall"":1,""CanBig"":3,""Seaweed"":2}","{""FishSmall"":0,""FishBig"":0,""CanSmall"":3,""CanBig"":2,""Seaweed"":1}",0,50,-11.66666667,-11.66666667,8.975274679,6.871842709,2,1,0,-2.103431969,-1,50,1,996.608,1,2,2,2,2,2,2,2,2,2,2,2,2,2,100,0.6
3714610,26,Male,1,0,trial_20,,1,,,5110.58,,830.72,"{""FishSmall"":2,""FishBig"":0,""CanSmall"":3,""CanBig"":0,""Seaweed"":1}","{""FishSmall"":1,""FishBig"":0,""CanSmall"":2,""CanBig"":1,""Seaweed"":2}",100,0,-1.666666667,-5,8.975274679,9.574271078,1,2,-3.333333333,0.598996399,1,-100,1,996.608,1,2,2,2,2,2,2,2,2,2,2,2,2,2,100,0.6
3714610,,,,,catch_2,1,,,2360.345,,,,"{""FishSmall"":0,""FishBig"":0,""CanSmall"":3,""CanBig"":3,""Seaweed"":0}","{""FishSmall"":0,""FishBig"":0,""CanSmall"":3,""CanBig"":3,""Seaweed"":0}",0,0,,,,,,,,,,,,,,,,,,,,,,,,,,,100,0.6
3714610,26,Male,1,0,trial_21,,0,1,,1591.425,1192.695,1387.36,"{""FishSmall"":2,""FishBig"":1,""CanSmall"":1,""CanBig"":0,""Seaweed"":2}","{""FishSmall"":0,""FishBig"":0,""CanSmall"":3,""CanBig"":3,""Seaweed"":0}",100,100,5,-15,9.574271078,5,2,0,-20,-4.574271078,-2,0,1,996.608,1,2,2,2,2,2,2,2,2,2,2,2,2,2,100,0.6
3714610,26,Male,1,1,trial_22,,,0,,832.435,928.76,,"{""FishSmall"":1,""FishBig"":0,""CanSmall"":2,""CanBig"":0,""Seaweed"":3}","{""FishSmall"":2,""FishBig"":2,""CanSmall"":0,""CanBig"":0,""Seaweed"":2}",0,100,-1.666666667,10,6.871842709,8.164965809,3,2,11.66666667,1.2931231,-1,100,1,996.608,1,2,2,2,2,2,2,2,2,2,2,2,2,2,100,0.6
3714610,26,Male,1,1,trial_23,,,,,579.17,,,"{""FishSmall"":2,""FishBig"":1,""CanSmall"":1,""CanBig"":0,""Seaweed"":2}","{""FishSmall"":1,""FishBig"":1,""CanSmall"":1,""CanBig"":0,""Seaweed"":3}",0,0,5,3.333333333,9.574271078,9.428090416,2,3,-1.666666667,-0.146180662,1,0,1,996.608,1,2,2,2,2,2,2,2,2,2,2,2,2,2,100,0.6
3714610,26,Male,1,1,trial_24,,1,0,,1799.095,1807.88,1294.65,"{""FishSmall"":0,""FishBig"":0,""CanSmall"":2,""CanBig"":3,""Seaweed"":1}","{""FishSmall"":1,""FishBig"":2,""CanSmall"":0,""CanBig"":0,""Seaweed"":3}",100,50,-13.33333333,8.333333333,7.453559925,8.975274679,1,3,21.66666667,1.521714754,2,-50,1,996.608,1,2,2,2,2,2,2,2,2,2,2,2,2,2,100,0.6
3714610,26,Male,1,0,trial_25,,0,,,2249.405,,1478.62,"{""FishSmall"":1,""FishBig"":3,""CanSmall"":0,""CanBig"":0,""Seaweed"":2}","{""FishSmall"":3,""FishBig"":0,""CanSmall"":1,""CanBig"":0,""Seaweed"":2}",50,0,11.66666667,3.333333333,8.975274679,7.453559925,2,2,-8.333333333,-1.521714754,0,-50,1,996.608,1,2,2,2,2,2,2,2,2,2,2,2,2,2,100,0.6
3714610,26,Male,1,0,trial_26,,1,1,,2479.765,925.485,757.4,"{""FishSmall"":1,""FishBig"":0,""CanSmall"":1,""CanBig"":1,""Seaweed"":3}","{""FishSmall"":0,""FishBig"":0,""CanSmall"":1,""CanBig"":4,""Seaweed"":1}",100,50,-3.333333333,-15,9.428090416,7.637626158,3,1,-11.66666667,-1.790464258,-2,-50,1,996.608,1,2,2,2,2,2,2,2,2,2,2,2,2,2,100,0.6
3714610,26,Male,1,0,trial_27,,1,1,,2207.065,1522.95,703.265,"{""FishSmall"":1,""FishBig"":1,""CanSmall"":1,""CanBig"":0,""Seaweed"":3}","{""FishSmall"":1,""FishBig"":0,""CanSmall"":3,""CanBig"":0,""Seaweed"":2}",50,50,3.333333333,-3.333333333,9.428090416,7.453559925,3,2,-6.666666667,-1.974530491,-1,0,1,996.608,1,2,2,2,2,2,2,2,2,2,2,2,2,2,100,0.6
3714610,26,Male,1,1,trial_28,,,0,,2634.825,3719.695,,"{""FishSmall"":3,""FishBig"":1,""CanSmall"":1,""CanBig"":0,""Seaweed"":1}","{""FishSmall"":2,""FishBig"":0,""CanSmall"":3,""CanBig"":0,""Seaweed"":1}",0,100,6.666666667,-1.666666667,9.428090416,8.975274679,1,1,-8.333333333,-0.452815737,0,100,1,996.608,1,2,2,2,2,2,2,2,2,2,2,2,2,2,100,0.6
3714610,26,Male,1,1,trial_29,,1,0,,774.235,699.425,1311.035,"{""FishSmall"":1,""FishBig"":0,""CanSmall"":3,""CanBig"":0,""Seaweed"":2}","{""FishSmall"":2,""FishBig"":1,""CanSmall"":1,""CanBig"":0,""Seaweed"":2}",100,100,-3.333333333,5,7.453559925,9.574271078,2,2,8.333333333,2.120711153,0,0,1,996.608,1,2,2,2,2,2,2,2,2,2,2,2,2,2,100,0.6
3714610,26,Male,1,0,trial_30,,0,,,867.315,,2359.365,"{""FishSmall"":2,""FishBig"":2,""CanSmall"":0,""CanBig"":0,""Seaweed"":2}","{""FishSmall"":2,""FishBig"":1,""CanSmall"":1,""CanBig"":0,""Seaweed"":2}",50,0,10,5,8.164965809,9.574271078,2,2,-5,1.409305268,0,-50,1,996.608,1,2,2,2,2,2,2,2,2,2,2,2,2,2,100,0.6
3714612,21,Male,1,0,trial_1,,,1,,11551.115,1160.515,,"{""FishSmall"":4,""FishBig"":0,""CanSmall"":1,""CanBig"":0,""Seaweed"":1}","{""FishSmall"":0,""FishBig"":0,""CanSmall"":1,""CanBig"":3,""Seaweed"":2}",0,100,5,-11.66666667,7.637626158,8.975274679,1,2,-16.66666667,1.33764852,1,100,1,717.9705,1,2,2,2,2,2,2,2,2,2,2,2,2,2,100,1
3714612,21,Male,1,0,trial_2,,0,,,8343.74,,6798.565,"{""FishSmall"":3,""FishBig"":1,""CanSmall"":1,""CanBig"":0,""Seaweed"":1}","{""FishSmall"":1,""FishBig"":0,""CanSmall"":2,""CanBig"":0,""Seaweed"":3}",100,50,6.666666667,-1.666666667,9.428090416,6.871842709,1,3,-8.333333333,-2.556247706,2,-50,1,717.9705,1,2,2,2,2,2,2,2,2,2,2,2,2,2,100,1
3714612,21,Male,1,0,trial_3,,1,,,7742.39,,1640.915,"{""FishSmall"":2,""FishBig"":0,""CanSmall"":3,""CanBig"":0,""Seaweed"":1}","{""FishSmall"":4,""FishBig"":0,""CanSmall"":0,""CanBig"":0,""Seaweed"":2}",50,0,-1.666666667,6.666666667,8.975274679,4.714045208,1,2,8.333333333,-4.261229471,1,-50,1,717.9705,1,2,2,2,2,2,2,2,2,2,2,2,2,2,100,1
3714612,21,Male,1,1,trial_4,,,1,,8450.955,2034.32,,"{""FishSmall"":0,""FishBig"":4,""CanSmall"":0,""CanBig"":0,""Seaweed"":2}","{""FishSmall"":3,""FishBig"":0,""CanSmall"":2,""CanBig"":0,""Seaweed"":1}",0,100,13.33333333,1.666666667,9.428090416,8.975274679,2,1,-11.66666667,-0.452815737,-1,100,1,717.9705,1,2,2,2,2,2,2,2,2,2,2,2,2,2,100,1
3714612,21,Male,1,0,trial_5,,1,,,17685.99,,1419.68,"{""FishSmall"":1,""FishBig"":0,""CanSmall"":3,""CanBig"":1,""Seaweed"":1}","{""FishSmall"":1,""FishBig"":0,""CanSmall"":3,""CanBig"":1,""Seaweed"":1}",100,50,-6.666666667,-6.666666667,9.428090416,9.428090416,1,1,0,0,0,-50,1,717.9705,1,2,2,2,2,2,2,2,2,2,2,2,2,2,100,1
3714612,21,Male,1,1,trial_6,,,0,,6188.825,6606.425,,"{""FishSmall"":1,""FishBig"":0,""CanSmall"":2,""CanBig"":1,""Seaweed"":2}","{""FishSmall"":3,""FishBig"":1,""CanSmall"":1,""CanBig"":0,""Seaweed"":1}",0,50,-5,6.666666667,9.574271078,9.428090416,2,1,11.66666667,-0.146180662,-1,50,1,717.9705,1,2,2,2,2,2,2,2,2,2,2,2,2,2,100,1
3714612,21,Male,1,1,trial_7,,1,1,,4035.635,2579.79,1746.79,"{""FishSmall"":0,""FishBig"":0,""CanSmall"":1,""CanBig"":2,""Seaweed"":3}","{""FishSmall"":1,""FishBig"":0,""CanSmall"":3,""CanBig"":0,""Seaweed"":2}",100,100,-8.333333333,-3.333333333,8.975274679,7.453559925,3,2,5,-1.521714754,-1,0,1,717.9705,1,2,2,2,2,2,2,2,2,2,2,2,2,2,100,1
3714612,21,Male,1,1,trial_8,,1,0,,3314.87,1284.07,1114.355,"{""FishSmall"":3,""FishBig"":0,""CanSmall"":1,""CanBig"":0,""Seaweed"":2}","{""FishSmall"":2,""FishBig"":1,""CanSmall"":1,""CanBig"":0,""Seaweed"":2}",100,100,3.333333333,5,7.453559925,9.574271078,2,2,1.666666667,2.120711153,0,0,1,717.9705,1,2,2,2,2,2,2,2,2,2,2,2,2,2,100,1
3714612,21,Male,1,0,trial_9,,,1,,2966.99,2081.675,,"{""FishSmall"":4,""FishBig"":0,""CanSmall"":0,""CanBig"":0,""Seaweed"":2}","{""FishSmall"":0,""FishBig"":0,""CanSmall"":2,""CanBig"":2,""Seaweed"":2}",50,50,6.666666667,-10,4.714045208,8.164965809,2,2,-16.66666667,3.450920601,0,0,1,717.9705,1,2,2,2,2,2,2,2,2,2,2,2,2,2,100,1
3714612,21,Male,1,0,trial_10,,,1,,1319.66,2102.145,,"{""FishSmall"":2,""FishBig"":0,""CanSmall"":3,""CanBig"":0,""Seaweed"":1}","{""FishSmall"":1,""FishBig"":0,""CanSmall"":2,""CanBig"":1,""Seaweed"":2}",50,100,-1.666666667,-5,8.975274679,9.574271078,1,2,-3.333333333,0.598996399,1,50,1,717.9705,1,2,2,2,2,2,2,2,2,2,2,2,2,2,100,1
3714612,,,,,catch_1,0,,,1502.01,,,,"{""FishSmall"":4,""FishBig"":2,""CanSmall"":0,""CanBig"":0,""Seaweed"":0}","{""FishSmall"":4,""FishBig"":2,""CanSmall"":0,""CanBig"":0,""Seaweed"":0}",0,0,,,,,,,,,,,,,,,,,,,,,,,,,,,100,1
3714612,21,Male,1,1,trial_11,,1,1,,4321.925,935.68,1211.655,"{""FishSmall"":1,""FishBig"":0,""CanSmall"":2,""CanBig"":1,""Seaweed"":2}","{""FishSmall"":3,""FishBig"":0,""CanSmall"":1,""CanBig"":0,""Seaweed"":2}",100,100,-5,3.333333333,9.574271078,7.453559925,2,2,8.333333333,-2.120711153,0,0,1,717.9705,1,2,2,2,2,2,2,2,2,2,2,2,2,2,100,1
3714612,21,Male,1,0,trial_12,,,,,7321.45,,,"{""FishSmall"":3,""FishBig"":0,""CanSmall"":2,""CanBig"":0,""Seaweed"":1}","{""FishSmall"":0,""FishBig"":0,""CanSmall"":1,""CanBig"":2,""Seaweed"":3}",0,0,1.666666667,-8.333333333,8.975274679,8.975274679,1,3,-10,0,2,0,1,717.9705,1,2,2,2,2,2,2,2,2,2,2,2,2,2,100,1
3714612,21,Male,1,0,trial_13,,0,,,10010.385,,4214.24,"{""FishSmall"":2,""FishBig"":1,""CanSmall"":1,""CanBig"":0,""Seaweed"":2}","{""FishSmall"":3,""FishBig"":1,""CanSmall"":1,""CanBig"":0,""Seaweed"":1}",100,0,5,6.666666667,9.574271078,9.428090416,2,1,1.666666667,-0.146180662,-1,-100,1,717.9705,1,2,2,2,2,2,2,2,2,2,2,2,2,2,100,1
3714612,21,Male,1,1,trial_14,,,,,5020.63,,,"{""FishSmall"":1,""FishBig"":0,""CanSmall"":1,""CanBig"":1,""Seaweed"":3}","{""FishSmall"":3,""FishBig"":1,""CanSmall"":1,""CanBig"":0,""Seaweed"":1}",0,0,-3.333333333,6.666666667,9.428090416,9.428090416,3,1,10,0,-2,0,1,717.9705,1,2,2,2,2,2,2,2,2,2,2,2,2,2,100,1
3714612,21,Male,1,0,trial_15,,1,,,10922.37,,2599.41,"{""FishSmall"":1,""FishBig"":0,""CanSmall"":1,""CanBig"":1,""Seaweed"":3}","{""FishSmall"":0,""FishBig"":0,""CanSmall"":3,""CanBig"":2,""Seaweed"":1}",50,50,-3.333333333,-11.66666667,9.428090416,6.871842709,3,1,-8.333333333,-2.556247706,-2,0,1,717.9705,1,2,2,2,2,2,2,2,2,2,2,2,2,2,100,1
3714612,21,Male,1,1,trial_16,,0,1,,2507.465,1236.455,6112.61,"{""FishSmall"":2,""FishBig"":3,""CanSmall"":0,""CanBig"":0,""Seaweed"":1}","{""FishSmall"":0,""FishBig"":0,""CanSmall"":1,""CanBig"":3,""Seaweed"":2}",50,100,13.33333333,-11.66666667,7.453559925,8.975274679,1,2,-25,1.521714754,1,50,1,717.9705,1,2,2,2,2,2,2,2,2,2,2,2,2,2,100,1
3714612,21,Male,1,0,trial_17,,0,,,1678.675,,732.64,"{""FishSmall"":3,""FishBig"":2,""CanSmall"":0,""CanBig"":0,""Seaweed"":1}","{""FishSmall"":1,""FishBig"":0,""CanSmall"":2,""CanBig"":1,""Seaweed"":2}",100,0,11.66666667,-5,6.871842709,9.574271078,1,2,-16.66666667,2.702428368,1,-100,1,717.9705,1,2,2,2,2,2,2,2,2,2,2,2,2,2,100,1
3714612,21,Male,1,0,trial_18,,0,1,,3014.1,2610.01,1838.25,"{""FishSmall"":1,""FishBig"":1,""CanSmall"":1,""CanBig"":0,""Seaweed"":3}","{""FishSmall"":0,""FishBig"":0,""CanSmall"":5,""CanBig"":0,""Seaweed"":1}",50,100,3.333333333,-8.333333333,9.428090416,3.726779962,3,1,-11.66666667,-5.701310453,-2,50,1,717.9705,1,2,2,2,2,2,2,2,2,2,2,2,2,2,100,1
3714612,21,Male,1,1,trial_19,,,0,,933.63,1020.99,,"{""FishSmall"":1,""FishBig"":0,""CanSmall"":3,""CanBig"":1,""Seaweed"":1}","{""FishSmall"":1,""FishBig"":0,""CanSmall"":3,""CanBig"":1,""Seaweed"":1}",0,100,-6.666666667,-6.666666667,9.428090416,9.428090416,1,1,0,0,0,100,1,717.9705,1,2,2,2,2,2,2,2,2,2,2,2,2,2,100,1
3714612,21,Male,1,1,trial_20,,1,0,,12611.48,1764.935,1273.81,"{""FishSmall"":2,""FishBig"":1,""CanSmall"":1,""CanBig"":0,""Seaweed"":2}","{""FishSmall"":3,""FishBig"":1,""CanSmall"":1,""CanBig"":0,""Seaweed"":1}",100,100,5,6.666666667,9.574271078,9.428090416,2,1,1.666666667,-0.146180662,-1,0,1,717.9705,1,2,2,2,2,2,2,2,2,2,2,2,2,2,100,1
3714612,,,,,catch_2,1,,,1429.725,,,,"{""FishSmall"":0,""FishBig"":0,""CanSmall"":3,""CanBig"":3,""Seaweed"":0}","{""FishSmall"":0,""FishBig"":0,""CanSmall"":3,""CanBig"":3,""Seaweed"":0}",0,0,,,,,,,,,,,,,,,,,,,,,,,,,,,100,1
3714612,21,Male,1,1,trial_21,,1,0,,1653.495,939.405,604.655,"{""FishSmall"":1,""FishBig"":0,""CanSmall"":2,""CanBig"":0,""Seaweed"":3}","{""FishSmall"":2,""FishBig"":1,""CanSmall"":1,""CanBig"":0,""Seaweed"":2}",100,100,-1.666666667,5,6.871842709,9.574271078,3,2,6.666666667,2.702428368,-1,0,1,717.9705,1,2,2,2,2,2,2,2,2,2,2,2,2,2,100,1
3714612,21,Male,1,0,trial_22,,0,1,,1211.75,1916.795,1562.545,"{""FishSmall"":2,""FishBig"":0,""CanSmall"":2,""CanBig"":0,""Seaweed"":2}","{""FishSmall"":1,""FishBig"":0,""CanSmall"":2,""CanBig"":1,""Seaweed"":2}",50,50,0,-5,8.164965809,9.574271078,2,2,-5,1.409305268,0,0,1,717.9705,1,2,2,2,2,2,2,2,2,2,2,2,2,2,100,1
3714612,21,Male,1,0,trial_23,,0,1,,557.56,888.035,651.975,"{""FishSmall"":2,""FishBig"":0,""CanSmall"":2,""CanBig"":0,""Seaweed"":2}","{""FishSmall"":0,""FishBig"":0,""CanSmall"":2,""CanBig"":2,""Seaweed"":2}",100,100,0,-10,8.164965809,8.164965809,2,2,-10,0,0,0,1,717.9705,1,2,2,2,2,2,2,2,2,2,2,2,2,2,100,1
3714612,21,Male,1,0,trial_24,,,1,,7440.575,3449.975,,"{""FishSmall"":1,""FishBig"":0,""CanSmall"":3,""CanBig"":1,""Seaweed"":1}","{""FishSmall"":0,""FishBig"":0,""CanSmall"":2,""CanBig"":1,""Seaweed"":3}",50,50,-6.666666667,-6.666666667,9.428090416,7.453559925,1,3,0,-1.974530491,2,0,1,717.9705,1,2,2,2,2,2,2,2,2,2,2,2,2,2,100,1
3714612,21,Male,1,1,trial_25,,,1,,4795.37,2305.01,,"{""FishSmall"":1,""FishBig"":3,""CanSmall"":0,""CanBig"":0,""Seaweed"":2}","{""FishSmall"":1,""FishBig"":0,""CanSmall"":2,""CanBig"":0,""Seaweed"":3}",0,100,11.66666667,-1.666666667,8.975274679,6.871842709,2,3,-13.33333333,-2.103431969,1,100,1,717.9705,1,2,2,2,2,2,2,2,2,2,2,2,2,2,100,1
3714612,21,Male,1,1,trial_26,,,0,,14249.805,1097.085,,"{""FishSmall"":1,""FishBig"":0,""CanSmall"":4,""CanBig"":0,""Seaweed"":1}","{""FishSmall"":2,""FishBig"":0,""CanSmall"":1,""CanBig"":0,""Seaweed"":3}",50,100,-5,1.666666667,7.637626158,6.871842709,1,3,6.666666667,-0.765783449,2,50,1,717.9705,1,2,2,2,2,2,2,2,2,2,2,2,2,2,100,1
3714612,21,Male,1,1,trial_27,,,0,,6733.435,3913.645,,"{""FishSmall"":0,""FishBig"":0,""CanSmall"":3,""CanBig"":1,""Seaweed"":2}","{""FishSmall"":1,""FishBig"":0,""CanSmall"":1,""CanBig"":1,""Seaweed"":3}",0,50,-8.333333333,-3.333333333,6.871842709,9.428090416,2,3,5,2.556247706,1,50,1,717.9705,1,2,2,2,2,2,2,2,2,2,2,2,2,2,100,1
3714612,21,Male,1,0,trial_28,,0,,,3677.485,,1082,"{""FishSmall"":2,""FishBig"":1,""CanSmall"":0,""CanBig"":0,""Seaweed"":3}","{""FishSmall"":0,""FishBig"":0,""CanSmall"":1,""CanBig"":2,""Seaweed"":3}",100,0,6.666666667,-8.333333333,7.453559925,8.975274679,3,3,-15,1.521714754,0,-100,1,717.9705,1,2,2,2,2,2,2,2,2,2,2,2,2,2,100,1
3714612,21,Male,1,0,trial_29,,,1,,7274.625,23530.315,,"{""FishSmall"":1,""FishBig"":0,""CanSmall"":2,""CanBig"":1,""Seaweed"":2}","{""FishSmall"":1,""FishBig"":0,""CanSmall"":2,""CanBig"":1,""Seaweed"":2}",50,50,-5,-5,9.574271078,9.574271078,2,2,0,0,0,0,1,717.9705,1,2,2,2,2,2,2,2,2,2,2,2,2,2,100,1
3714612,21,Male,1,1,trial_30,,0,0,,18059.595,709.965,1911.76,"{""FishSmall"":3,""FishBig"":1,""CanSmall"":1,""CanBig"":0,""Seaweed"":1}","{""FishSmall"":2,""FishBig"":1,""CanSmall"":0,""CanBig"":0,""Seaweed"":3}",100,100,6.666666667,6.666666667,9.428090416,7.453559925,1,3,0,-1.974530491,2,0,1,717.9705,1,2,2,2,2,2,2,2,2,2,2,2,2,2,100,1
3714613,44,Male,1,1,trial_1,,0,1,,9796.51,6810.375,9963.63,"{""FishSmall"":1,""FishBig"":4,""CanSmall"":0,""CanBig"":0,""Seaweed"":1}","{""FishSmall"":0,""FishBig"":0,""CanSmall"":1,""CanBig"":3,""Seaweed"":2}",50,100,15,-11.66666667,7.637626158,8.975274679,1,2,-26.66666667,1.33764852,1,50,1,1158.495,1,2,2,2,2,2,2,2,2,2,2,2,2,2,100,1
3714613,44,Male,1,1,trial_2,,,0,,1524.645,6425.985,,"{""FishSmall"":1,""FishBig"":0,""CanSmall"":4,""CanBig"":1,""Seaweed"":0}","{""FishSmall"":1,""FishBig"":1,""CanSmall"":1,""CanBig"":0,""Seaweed"":3}",0,50,-8.333333333,3.333333333,8.975274679,9.428090416,0,3,11.66666667,0.452815737,3,50,1,1158.495,1,2,2,2,2,2,2,2,2,2,2,2,2,2,100,1
3714613,44,Male,1,0,trial_3,,0,,,7356.525,,6534.73,"{""FishSmall"":1,""FishBig"":1,""CanSmall"":1,""CanBig"":0,""Seaweed"":3}","{""FishSmall"":2,""FishBig"":2,""CanSmall"":0,""CanBig"":0,""Seaweed"":2}",100,0,3.333333333,10,9.428090416,8.164965809,3,2,6.666666667,-1.263124607,-1,-100,1,1158.495,1,2,2,2,2,2,2,2,2,2,2,2,2,2,100,1
3714613,44,Male,1,0,trial_4,,1,1,,5938.63,18793.67,2972.395,"{""FishSmall"":2,""FishBig"":0,""CanSmall"":2,""CanBig"":0,""Seaweed"":2}","{""FishSmall"":1,""FishBig"":1,""CanSmall"":1,""CanBig"":0,""Seaweed"":3}",100,50,0,3.333333333,8.164965809,9.428090416,2,3,3.333333333,1.263124607,1,-50,1,1158.495,1,2,2,2,2,2,2,2,2,2,2,2,2,2,100,1
3714613,44,Male,1,1,trial_5,,,,,1020.86,,,"{""FishSmall"":2,""FishBig"":1,""CanSmall"":1,""CanBig"":0,""Seaweed"":2}","{""FishSmall"":3,""FishBig"":1,""CanSmall"":1,""CanBig"":0,""Seaweed"":1}",0,50,5,6.666666667,9.574271078,9.428090416,2,1,1.666666667,-0.146180662,-1,50,1,1158.495,1,2,2,2,2,2,2,2,2,2,2,2,2,2,100,1
3714613,44,Male,1,1,trial_6,,0,1,,5010.615,2250.82,4393.65,"{""FishSmall"":2,""FishBig"":1,""CanSmall"":1,""CanBig"":0,""Seaweed"":2}","{""FishSmall"":1,""FishBig"":0,""CanSmall"":2,""CanBig"":0,""Seaweed"":3}",100,100,5,-1.666666667,9.574271078,6.871842709,2,3,-6.666666667,-2.702428368,1,0,1,1158.495,1,2,2,2,2,2,2,2,2,2,2,2,2,2,100,1
3714613,44,Male,1,1,trial_7,,1,,,4556.305,,2326.83,"{""FishSmall"":0,""FishBig"":0,""CanSmall"":4,""CanBig"":1,""Seaweed"":1}","{""FishSmall"":2,""FishBig"":0,""CanSmall"":1,""CanBig"":0,""Seaweed"":3}",100,0,-10,1.666666667,5.773502692,6.871842709,1,3,11.66666667,1.098340017,2,-100,1,1158.495,1,2,2,2,2,2,2,2,2,2,2,2,2,2,100,1
3714613,44,Male,1,0,trial_8,,,,,1114.13,,,"{""FishSmall"":1,""FishBig"":0,""CanSmall"":2,""CanBig"":1,""Seaweed"":2}","{""FishSmall"":4,""FishBig"":1,""CanSmall"":1,""CanBig"":0,""Seaweed"":0}",50,50,-5,8.333333333,9.574271078,8.975274679,2,0,13.33333333,-0.598996399,-2,0,1,1158.495,1,2,2,2,2,2,2,2,2,2,2,2,2,2,100,1
3714613,44,Male,1,1,trial_9,,0,1,,956.155,1074.82,3304.525,"{""FishSmall"":5,""FishBig"":0,""CanSmall"":0,""CanBig"":0,""Seaweed"":1}","{""FishSmall"":0,""FishBig"":0,""CanSmall"":1,""CanBig"":2,""Seaweed"":3}",100,100,8.333333333,-8.333333333,3.726779962,8.975274679,1,3,-16.66666667,5.248494716,2,0,1,1158.495,1,2,2,2,2,2,2,2,2,2,2,2,2,2,100,1
3714613,44,Male,1,1,trial_10,,1,1,,852.435,2131.105,3792.26,"{""FishSmall"":0,""FishBig"":0,""CanSmall"":5,""CanBig"":0,""Seaweed"":1}","{""FishSmall"":3,""FishBig"":0,""CanSmall"":0,""CanBig"":0,""Seaweed"":3}",50,100,-8.333333333,5,3.726779962,5,1,3,13.33333333,1.273220038,2,50,1,1158.495,1,2,2,2,2,2,2,2,2,2,2,2,2,2,100,1
3714613,,,,,catch_1,0,,,4113.23,,,,"{""FishSmall"":4,""FishBig"":2,""CanSmall"":0,""CanBig"":0,""Seaweed"":0}","{""FishSmall"":4,""FishBig"":2,""CanSmall"":0,""CanBig"":0,""Seaweed"":0}",0,0,,,,,,,,,,,,,,,,,,,,,,,,,,,100,1
3714613,44,Male,1,0,trial_11,,0,,,4473.135,,5185.845,"{""FishSmall"":2,""FishBig"":0,""CanSmall"":1,""CanBig"":0,""Seaweed"":3}","{""FishSmall"":2,""FishBig"":0,""CanSmall"":2,""CanBig"":0,""Seaweed"":2}",50,0,1.666666667,0,6.871842709,8.164965809,3,2,-1.666666667,1.2931231,-1,-50,1,1158.495,1,2,2,2,2,2,2,2,2,2,2,2,2,2,100,1
3714613,44,Male,1,1,trial_12,,,,,1475.77,,,"{""FishSmall"":1,""FishBig"":0,""CanSmall"":2,""CanBig"":1,""Seaweed"":2}","{""FishSmall"":1,""FishBig"":0,""CanSmall"":4,""CanBig"":1,""Seaweed"":0}",0,50,-5,-8.333333333,9.574271078,8.975274679,2,0,-3.333333333,-0.598996399,-2,50,1,1158.495,1,2,2,2,2,2,2,2,2,2,2,2,2,2,100,1
3714613,44,Male,1,1,trial_13,,,0,,1136.92,1603.68,,"{""FishSmall"":1,""FishBig"":0,""CanSmall"":1,""CanBig"":1,""Seaweed"":3}","{""FishSmall"":1,""FishBig"":1,""CanSmall"":1,""CanBig"":0,""Seaweed"":3}",0,100,-3.333333333,3.333333333,9.428090416,9.428090416,3,3,6.666666667,0,0,100,1,1158.495,1,2,2,2,2,2,2,2,2,2,2,2,2,2,100,1
3714613,44,Male,1,0,trial_14,,0,,,1017.04,,1234.86,"{""FishSmall"":4,""FishBig"":0,""CanSmall"":1,""CanBig"":0,""Seaweed"":1}","{""FishSmall"":2,""FishBig"":1,""CanSmall"":1,""CanBig"":0,""Seaweed"":2}",100,0,5,5,7.637626158,9.574271078,1,2,0,1.936644919,1,-100,1,1158.495,1,2,2,2,2,2,2,2,2,2,2,2,2,2,100,1
3714613,44,Male,1,1,trial_15,,,,,811.415,,,"{""FishSmall"":1,""FishBig"":0,""CanSmall"":2,""CanBig"":1,""Seaweed"":2}","{""FishSmall"":0,""FishBig"":0,""CanSmall"":1,""CanBig"":3,""Seaweed"":2}",0,50,-5,-11.66666667,9.574271078,8.975274679,2,2,-6.666666667,-0.598996399,0,50,1,1158.495,1,2,2,2,2,2,2,2,2,2,2,2,2,2,100,1
3714613,44,Male,1,1,trial_16,,0,1,,7006.1,1839.87,8012.86,"{""FishSmall"":3,""FishBig"":1,""CanSmall"":0,""CanBig"":0,""Seaweed"":2}","{""FishSmall"":1,""FishBig"":0,""CanSmall"":3,""CanBig"":1,""Seaweed"":1}",50,100,8.333333333,-6.666666667,6.871842709,9.428090416,2,1,-15,2.556247706,-1,50,1,1158.495,1,2,2,2,2,2,2,2,2,2,2,2,2,2,100,1
3714613,44,Male,1,1,trial_17,,,,,1200.705,,,"{""FishSmall"":0,""FishBig"":0,""CanSmall"":2,""CanBig"":2,""Seaweed"":2}","{""FishSmall"":2,""FishBig"":2,""CanSmall"":0,""CanBig"":0,""Seaweed"":2}",0,50,-10,10,8.164965809,8.164965809,2,2,20,0,0,50,1,1158.495,1,2,2,2,2,2,2,2,2,2,2,2,2,2,100,1
3714613,44,Male,1,1,trial_18,,,0,,1056.03,2651.275,,"{""FishSmall"":0,""FishBig"":0,""CanSmall"":1,""CanBig"":3,""Seaweed"":2}","{""FishSmall"":2,""FishBig"":0,""CanSmall"":1,""CanBig"":0,""Seaweed"":3}",0,50,-11.66666667,1.666666667,8.975274679,6.871842709,2,3,13.33333333,-2.103431969,1,50,1,1158.495,1,2,2,2,2,2,2,2,2,2,2,2,2,2,100,1
3714613,44,Male,1,1,trial_19,,,,,1110.99,,,"{""FishSmall"":3,""FishBig"":2,""CanSmall"":0,""CanBig"":0,""Seaweed"":1}","{""FishSmall"":3,""FishBig"":2,""CanSmall"":0,""CanBig"":0,""Seaweed"":1}",0,0,11.66666667,11.66666667,6.871842709,6.871842709,1,1,0,0,0,0,1,1158.495,1,2,2,2,2,2,2,2,2,2,2,2,2,2,100,1
3714613,44,Male,1,1,trial_20,,,1,,943.36,1215.825,,"{""FishSmall"":2,""FishBig"":3,""CanSmall"":0,""CanBig"":0,""Seaweed"":1}","{""FishSmall"":1,""FishBig"":0,""CanSmall"":2,""CanBig"":1,""Seaweed"":2}",0,100,13.33333333,-5,7.453559925,9.574271078,1,2,-18.33333333,2.120711153,1,100,1,1158.495,1,2,2,2,2,2,2,2,2,2,2,2,2,2,100,1
3714613,,,,,catch_2,1,,,2542.925,,,,"{""FishSmall"":0,""FishBig"":0,""CanSmall"":3,""CanBig"":3,""Seaweed"":0}","{""FishSmall"":0,""FishBig"":0,""CanSmall"":3,""CanBig"":3,""Seaweed"":0}",0,0,,,,,,,,,,,,,,,,,,,,,,,,,,,100,1
3714613,44,Male,1,0,trial_21,,0,1,,3361.08,4671.64,2232.31,"{""FishSmall"":1,""FishBig"":0,""CanSmall"":1,""CanBig"":1,""Seaweed"":3}","{""FishSmall"":1,""FishBig"":0,""CanSmall"":2,""CanBig"":1,""Seaweed"":2}",100,50,-3.333333333,-5,9.428090416,9.574271078,3,2,-1.666666667,0.146180662,-1,-50,1,1158.495,1,2,2,2,2,2,2,2,2,2,2,2,2,2,100,1
3714613,44,Male,1,1,trial_22,,,1,,1369.39,1351.92,,"{""FishSmall"":1,""FishBig"":1,""CanSmall"":1,""CanBig"":0,""Seaweed"":3}","{""FishSmall"":1,""FishBig"":0,""CanSmall"":3,""CanBig"":1,""Seaweed"":1}",0,100,3.333333333,-6.666666667,9.428090416,9.428090416,3,1,-10,-1.78E-15,-2,100,1,1158.495,1,2,2,2,2,2,2,2,2,2,2,2,2,2,100,1
3714613,44,Male,1,0,trial_23,,1,0,,5018.995,4778.335,9561.21,"{""FishSmall"":0,""FishBig"":1,""CanSmall"":0,""CanBig"":1,""Seaweed"":4}","{""FishSmall"":1,""FishBig"":3,""CanSmall"":0,""CanBig"":0,""Seaweed"":2}",50,100,0,11.66666667,11.54700538,8.975274679,4,2,11.66666667,-2.571730705,-2,50,1,1158.495,1,2,2,2,2,2,2,2,2,2,2,2,2,2,100,1
3714613,44,Male,1,0,trial_24,,0,,,1039.585,,1012.465,"{""FishSmall"":3,""FishBig"":1,""CanSmall"":0,""CanBig"":0,""Seaweed"":2}","{""FishSmall"":4,""FishBig"":1,""CanSmall"":0,""CanBig"":0,""Seaweed"":1}",100,50,8.333333333,10,6.871842709,5.773502692,2,1,1.666666667,-1.098340017,-1,-50,1,1158.495,1,2,2,2,2,2,2,2,2,2,2,2,2,2,100,1
3714613,44,Male,1,1,trial_25,,,,,2227.835,,,"{""FishSmall"":0,""FishBig"":0,""CanSmall"":2,""CanBig"":3,""Seaweed"":1}","{""FishSmall"":2,""FishBig"":0,""CanSmall"":2,""CanBig"":0,""Seaweed"":2}",50,50,-13.33333333,0,7.453559925,8.164965809,1,2,13.33333333,0.711405884,1,0,1,1158.495,1,2,2,2,2,2,2,2,2,2,2,2,2,2,100,1
3714613,44,Male,1,0,trial_26,,1,,,812.185,,1415.85,"{""FishSmall"":1,""FishBig"":0,""CanSmall"":3,""CanBig"":1,""Seaweed"":1}","{""FishSmall"":3,""FishBig"":0,""CanSmall"":1,""CanBig"":0,""Seaweed"":2}",100,0,-6.666666667,3.333333333,9.428090416,7.453559925,1,2,10,-1.974530491,1,-100,1,1158.495,1,2,2,2,2,2,2,2,2,2,2,2,2,2,100,1
3714613,44,Male,1,0,trial_27,,0,1,,838.545,1734.655,11175.02,"{""FishSmall"":1,""FishBig"":0,""CanSmall"":2,""CanBig"":1,""Seaweed"":2}","{""FishSmall"":0,""FishBig"":0,""CanSmall"":2,""CanBig"":3,""Seaweed"":1}",100,100,-5,-13.33333333,9.574271078,7.453559925,2,1,-8.333333333,-2.120711153,-1,0,1,1158.495,1,2,2,2,2,2,2,2,2,2,2,2,2,2,100,1
3714613,44,Male,1,1,trial_28,,,0,,1004.255,1091.325,,"{""FishSmall"":2,""FishBig"":0,""CanSmall"":2,""CanBig"":0,""Seaweed"":2}","{""FishSmall"":1,""FishBig"":0,""CanSmall"":1,""CanBig"":1,""Seaweed"":3}",0,100,0,-3.333333333,8.164965809,9.428090416,2,3,-3.333333333,1.263124607,1,100,1,1158.495,1,2,2,2,2,2,2,2,2,2,2,2,2,2,100,1
3714613,44,Male,1,0,trial_29,,1,1,,2081.135,14981.97,1066.75,"{""FishSmall"":1,""FishBig"":1,""CanSmall"":1,""CanBig"":0,""Seaweed"":3}","{""FishSmall"":2,""FishBig"":0,""CanSmall"":1,""CanBig"":0,""Seaweed"":3}",100,50,3.333333333,1.666666667,9.428090416,6.871842709,3,3,-1.666666667,-2.556247706,0,-50,1,1158.495,1,2,2,2,2,2,2,2,2,2,2,2,2,2,100,1
3714613,44,Male,1,0,trial_30,,1,,,3347.655,,813.86,"{""FishSmall"":4,""FishBig"":0,""CanSmall"":2,""CanBig"":0,""Seaweed"":0}","{""FishSmall"":2,""FishBig"":1,""CanSmall"":1,""CanBig"":0,""Seaweed"":2}",100,0,3.333333333,5,9.428090416,9.574271078,0,2,1.666666667,0.146180662,2,-100,1,1158.495,1,2,2,2,2,2,2,2,2,2,2,2,2,2,100,1
3714615,43,Male,1,0,trial_1,,1,,,5957.44,,4396.36,"{""FishSmall"":0,""FishBig"":0,""CanSmall"":3,""CanBig"":1,""Seaweed"":2}","{""FishSmall"":1,""FishBig"":0,""CanSmall"":2,""CanBig"":0,""Seaweed"":3}",100,0,-8.333333333,-1.666666667,6.871842709,6.871842709,2,3,6.666666667,0,1,-100,1,2164.327,1,2,2,2,2,2,2,2,2,2,2,2,2,2,100,1
3714615,43,Male,1,0,trial_2,,1,,,5669.43,,8224.575,"{""FishSmall"":1,""FishBig"":0,""CanSmall"":1,""CanBig"":1,""Seaweed"":3}","{""FishSmall"":1,""FishBig"":1,""CanSmall"":1,""CanBig"":0,""Seaweed"":3}",100,0,-3.333333333,3.333333333,9.428090416,9.428090416,3,3,6.666666667,0,0,-100,1,2164.327,1,2,2,2,2,2,2,2,2,2,2,2,2,2,100,1
3714615,43,Male,1,0,trial_3,,0,1,,9751.54,7606.755,6594.525,"{""FishSmall"":3,""FishBig"":3,""CanSmall"":0,""CanBig"":0,""Seaweed"":0}","{""FishSmall"":0,""FishBig"":0,""CanSmall"":5,""CanBig"":1,""Seaweed"":0}",100,100,15,-11.66666667,5,3.726779962,0,0,-26.66666667,-1.273220038,0,0,1,2164.327,1,2,2,2,2,2,2,2,2,2,2,2,2,2,100,1
3714615,43,Male,1,1,trial_4,,0,1,,5882.85,7062.92,6786.665,"{""FishSmall"":4,""FishBig"":1,""CanSmall"":0,""CanBig"":0,""Seaweed"":1}","{""FishSmall"":1,""FishBig"":0,""CanSmall"":3,""CanBig"":1,""Seaweed"":1}",50,100,10,-6.666666667,5.773502692,9.428090416,1,1,-16.66666667,3.654587724,0,50,1,2164.327,1,2,2,2,2,2,2,2,2,2,2,2,2,2,100,1
3714615,43,Male,1,0,trial_5,,1,,,6209.335,,6746.265,"{""FishSmall"":0,""FishBig"":0,""CanSmall"":2,""CanBig"":1,""Seaweed"":3}","{""FishSmall"":0,""FishBig"":0,""CanSmall"":1,""CanBig"":2,""Seaweed"":3}",100,0,-6.666666667,-8.333333333,7.453559925,8.975274679,3,3,-1.666666667,1.521714754,0,-100,1,2164.327,1,2,2,2,2,2,2,2,2,2,2,2,2,2,100,1
3714615,43,Male,1,1,trial_6,,,,,4776.39,,,"{""FishSmall"":1,""FishBig"":0,""CanSmall"":3,""CanBig"":1,""Seaweed"":1}","{""FishSmall"":2,""FishBig"":1,""CanSmall"":1,""CanBig"":0,""Seaweed"":2}",0,0,-6.666666667,5,9.428090416,9.574271078,1,2,11.66666667,0.146180662,1,0,1,2164.327,1,2,2,2,2,2,2,2,2,2,2,2,2,2,100,1
3714615,43,Male,1,1,trial_7,,,0,,4371.695,6506.195,,"{""FishSmall"":0,""FishBig"":0,""CanSmall"":4,""CanBig"":2,""Seaweed"":0}","{""FishSmall"":1,""FishBig"":5,""CanSmall"":0,""CanBig"":0,""Seaweed"":0}",50,100,-13.33333333,18.33333333,4.714045208,3.726779962,0,0,31.66666667,-0.987265245,0,50,1,2164.327,1,2,2,2,2,2,2,2,2,2,2,2,2,2,100,1
3714615,43,Male,1,1,trial_8,,,,,5325.7,,,"{""FishSmall"":4,""FishBig"":1,""CanSmall"":1,""CanBig"":0,""Seaweed"":0}","{""FishSmall"":0,""FishBig"":0,""CanSmall"":2,""CanBig"":1,""Seaweed"":3}",0,50,8.333333333,-6.666666667,8.975274679,7.453559925,0,3,-15,-1.521714754,3,50,1,2164.327,1,2,2,2,2,2,2,2,2,2,2,2,2,2,100,1
3714615,43,Male,1,1,trial_9,,1,,,7017.99,,6710.575,"{""FishSmall"":1,""FishBig"":0,""CanSmall"":3,""CanBig"":1,""Seaweed"":1}","{""FishSmall"":1,""FishBig"":0,""CanSmall"":3,""CanBig"":0,""Seaweed"":2}",100,50,-6.666666667,-3.333333333,9.428090416,7.453559925,1,2,3.333333333,-1.974530491,1,-50,1,2164.327,1,2,2,2,2,2,2,2,2,2,2,2,2,2,100,1
3714615,43,Male,1,0,trial_10,,,1,,4069.465,14140.99,,"{""FishSmall"":4,""FishBig"":1,""CanSmall"":1,""CanBig"":0,""Seaweed"":0}","{""FishSmall"":2,""FishBig"":0,""CanSmall"":1,""CanBig"":0,""Seaweed"":3}",50,100,8.333333333,1.666666667,8.975274679,6.871842709,0,3,-6.666666667,-2.103431969,3,50,1,2164.327,1,2,2,2,2,2,2,2,2,2,2,2,2,2,100,1
3714615,,,,,catch_1,0,,,6805.36,,,,"{""FishSmall"":4,""FishBig"":2,""CanSmall"":0,""CanBig"":0,""Seaweed"":0}","{""FishSmall"":4,""FishBig"":2,""CanSmall"":0,""CanBig"":0,""Seaweed"":0}",0,0,,,,,,,,,,,,,,,,,,,,,,,,,,,100,1
3714615,43,Male,1,1,trial_11,,,,,5702.75,,,"{""FishSmall"":3,""FishBig"":0,""CanSmall"":2,""CanBig"":0,""Seaweed"":1}","{""FishSmall"":3,""FishBig"":0,""CanSmall"":1,""CanBig"":0,""Seaweed"":2}",50,50,1.666666667,3.333333333,8.975274679,7.453559925,1,2,1.666666667,-1.521714754,1,0,1,2164.327,1,2,2,2,2,2,2,2,2,2,2,2,2,2,100,1
3714615,43,Male,1,1,trial_12,,,0,,6959.105,6944.23,,"{""FishSmall"":0,""FishBig"":0,""CanSmall"":3,""CanBig"":2,""Seaweed"":1}","{""FishSmall"":1,""FishBig"":0,""CanSmall"":2,""CanBig"":1,""Seaweed"":2}",50,100,-11.66666667,-5,6.871842709,9.574271078,1,2,6.666666667,2.702428368,1,50,1,2164.327,1,2,2,2,2,2,2,2,2,2,2,2,2,2,100,1
3714615,43,Male,1,0,trial_13,,,,,5457.475,,,"{""FishSmall"":3,""FishBig"":0,""CanSmall"":2,""CanBig"":0,""Seaweed"":1}","{""FishSmall"":0,""FishBig"":0,""CanSmall"":0,""CanBig"":4,""Seaweed"":2}",0,0,1.666666667,-13.33333333,8.975274679,9.428090416,1,2,-15,0.452815737,1,0,1,2164.327,1,2,2,2,2,2,2,2,2,2,2,2,2,2,100,1
3714615,43,Male,1,1,trial_14,,,,,12434.84,,,"{""FishSmall"":3,""FishBig"":1,""CanSmall"":1,""CanBig"":0,""Seaweed"":1}","{""FishSmall"":1,""FishBig"":4,""CanSmall"":0,""CanBig"":0,""Seaweed"":1}",0,0,6.666666667,15,9.428090416,7.637626158,1,1,8.333333333,-1.790464258,0,0,1,2164.327,1,2,2,2,2,2,2,2,2,2,2,2,2,2,100,1
3714615,43,Male,1,1,trial_15,,1,1,,12259.24,7860.975,9475.17,"{""FishSmall"":1,""FishBig"":0,""CanSmall"":3,""CanBig"":0,""Seaweed"":2}","{""FishSmall"":1,""FishBig"":0,""CanSmall"":1,""CanBig"":1,""Seaweed"":3}",50,50,-3.333333333,-3.333333333,7.453559925,9.428090416,2,3,0,1.974530491,1,0,1,2164.327,1,2,2,2,2,2,2,2,2,2,2,2,2,2,100,1
3714615,43,Male,1,0,trial_16,,0,,,5096.84,,6560.56,"{""FishSmall"":1,""FishBig"":4,""CanSmall"":0,""CanBig"":0,""Seaweed"":1}","{""FishSmall"":3,""FishBig"":2,""CanSmall"":0,""CanBig"":0,""Seaweed"":1}",100,0,15,11.66666667,7.637626158,6.871842709,1,1,-3.333333333,-0.765783449,0,-100,1,2164.327,1,2,2,2,2,2,2,2,2,2,2,2,2,2,100,1
3714615,43,Male,1,1,trial_17,,,,,6736.935,,,"{""FishSmall"":4,""FishBig"":1,""CanSmall"":1,""CanBig"":0,""Seaweed"":0}","{""FishSmall"":3,""FishBig"":3,""CanSmall"":0,""CanBig"":0,""Seaweed"":0}",0,0,8.333333333,15,8.975274679,5,0,0,6.666666667,-3.975274679,0,0,1,2164.327,1,2,2,2,2,2,2,2,2,2,2,2,2,2,100,1
3714615,43,Male,1,0,trial_18,,0,,,6081.9,,6847.24,"{""FishSmall"":3,""FishBig"":1,""CanSmall"":1,""CanBig"":0,""Seaweed"":1}","{""FishSmall"":0,""FishBig"":0,""CanSmall"":4,""CanBig"":1,""Seaweed"":1}",100,0,6.666666667,-10,9.428090416,5.773502692,1,1,-16.66666667,-3.654587724,0,-100,1,2164.327,1,2,2,2,2,2,2,2,2,2,2,2,2,2,100,1
3714615,43,Male,1,0,trial_19,,,,,5036.69,,,"{""FishSmall"":5,""FishBig"":0,""CanSmall"":0,""CanBig"":0,""Seaweed"":1}","{""FishSmall"":0,""FishBig"":0,""CanSmall"":4,""CanBig"":0,""Seaweed"":2}",0,50,8.333333333,-6.666666667,3.726779962,4.714045208,1,2,-15,0.987265245,1,50,1,2164.327,1,2,2,2,2,2,2,2,2,2,2,2,2,2,100,1
3714615,43,Male,1,0,trial_20,,1,,,5845.335,,6601.795,"{""FishSmall"":1,""FishBig"":0,""CanSmall"":3,""CanBig"":0,""Seaweed"":2}","{""FishSmall"":0,""FishBig"":0,""CanSmall"":3,""CanBig"":0,""Seaweed"":3}",50,0,-3.333333333,-5,7.453559925,5,2,3,-1.666666667,-2.453559925,1,-50,1,2164.327,1,2,2,2,2,2,2,2,2,2,2,2,2,2,100,1
3714615,,,,,catch_2,1,,,6216.585,,,,"{""FishSmall"":0,""FishBig"":0,""CanSmall"":3,""CanBig"":3,""Seaweed"":0}","{""FishSmall"":0,""FishBig"":0,""CanSmall"":3,""CanBig"":3,""Seaweed"":0}",0,0,,,,,,,,,,,,,,,,,,,,,,,,,,,100,1
3714615,43,Male,1,0,trial_21,,0,,,5374.075,,6872.825,"{""FishSmall"":1,""FishBig"":1,""CanSmall"":1,""CanBig"":0,""Seaweed"":3}","{""FishSmall"":1,""FishBig"":2,""CanSmall"":0,""CanBig"":0,""Seaweed"":3}",100,0,3.333333333,8.333333333,9.428090416,8.975274679,3,3,5,-0.452815737,0,-100,1,2164.327,1,2,2,2,2,2,2,2,2,2,2,2,2,2,100,1
3714615,43,Male,1,1,trial_22,,1,0,,6623.465,6422.045,6786.715,"{""FishSmall"":1,""FishBig"":0,""CanSmall"":3,""CanBig"":1,""Seaweed"":1}","{""FishSmall"":3,""FishBig"":0,""CanSmall"":2,""CanBig"":0,""Seaweed"":1}",50,100,-6.666666667,1.666666667,9.428090416,8.975274679,1,1,8.333333333,-0.452815737,0,50,1,2164.327,1,2,2,2,2,2,2,2,2,2,2,2,2,2,100,1
3714615,43,Male,1,1,trial_23,,1,,,4072.85,,6905.715,"{""FishSmall"":0,""FishBig"":0,""CanSmall"":1,""CanBig"":5,""Seaweed"":0}","{""FishSmall"":0,""FishBig"":0,""CanSmall"":2,""CanBig"":1,""Seaweed"":3}",100,0,-18.33333333,-6.666666667,3.726779962,7.453559925,0,3,11.66666667,3.726779962,3,-100,1,2164.327,1,2,2,2,2,2,2,2,2,2,2,2,2,2,100,1
3714615,43,Male,1,1,trial_24,,,,,5177.555,,,"{""FishSmall"":1,""FishBig"":0,""CanSmall"":2,""CanBig"":0,""Seaweed"":3}","{""FishSmall"":1,""FishBig"":0,""CanSmall"":1,""CanBig"":1,""Seaweed"":3}",0,50,-1.666666667,-3.333333333,6.871842709,9.428090416,3,3,-1.666666667,2.556247706,0,50,1,2164.327,1,2,2,2,2,2,2,2,2,2,2,2,2,2,100,1
3714615,43,Male,1,1,trial_25,,,0,,4556.575,7170.08,,"{""FishSmall"":0,""FishBig"":0,""CanSmall"":1,""CanBig"":3,""Seaweed"":2}","{""FishSmall"":2,""FishBig"":0,""CanSmall"":2,""CanBig"":0,""Seaweed"":2}",50,100,-11.66666667,0,8.975274679,8.164965809,2,2,11.66666667,-0.810308869,0,50,1,2164.327,1,2,2,2,2,2,2,2,2,2,2,2,2,2,100,1
3714615,43,Male,1,1,trial_26,,,0,,5983.835,6496.39,,"{""FishSmall"":1,""FishBig"":0,""CanSmall"":4,""CanBig"":0,""Seaweed"":1}","{""FishSmall"":2,""FishBig"":1,""CanSmall"":0,""CanBig"":0,""Seaweed"":3}",0,100,-5,6.666666667,7.637626158,7.453559925,1,3,11.66666667,-0.184066233,2,100,1,2164.327,1,2,2,2,2,2,2,2,2,2,2,2,2,2,100,1
3714615,43,Male,1,1,trial_27,,1,1,,4656.33,6595.405,6774.075,"{""FishSmall"":0,""FishBig"":0,""CanSmall"":2,""CanBig"":1,""Seaweed"":3}","{""FishSmall"":3,""FishBig"":0,""CanSmall"":0,""CanBig"":0,""Seaweed"":3}",50,100,-6.666666667,5,7.453559925,5,3,3,11.66666667,-2.453559925,0,50,1,2164.327,1,2,2,2,2,2,2,2,2,2,2,2,2,2,100,1
3714615,43,Male,1,0,trial_28,,,,,3824.515,,,"{""FishSmall"":2,""FishBig"":0,""CanSmall"":2,""CanBig"":0,""Seaweed"":2}","{""FishSmall"":1,""FishBig"":0,""CanSmall"":3,""CanBig"":1,""Seaweed"":1}",0,0,0,-6.666666667,8.164965809,9.428090416,2,1,-6.666666667,1.263124607,-1,0,1,2164.327,1,2,2,2,2,2,2,2,2,2,2,2,2,2,100,1
3714615,43,Male,1,1,trial_29,,1,,,6635.295,,6506.035,"{""FishSmall"":1,""FishBig"":0,""CanSmall"":1,""CanBig"":1,""Seaweed"":3}","{""FishSmall"":2,""FishBig"":2,""CanSmall"":0,""CanBig"":0,""Seaweed"":2}",100,50,-3.333333333,10,9.428090416,8.164965809,3,2,13.33333333,-1.263124607,-1,-50,1,2164.327,1,2,2,2,2,2,2,2,2,2,2,2,2,2,100,1
3714615,43,Male,1,0,trial_30,,,,,6536.465,,,"{""FishSmall"":1,""FishBig"":2,""CanSmall"":0,""CanBig"":0,""Seaweed"":3}","{""FishSmall"":1,""FishBig"":0,""CanSmall"":3,""CanBig"":0,""Seaweed"":2}",0,50,8.333333333,-3.333333333,8.975274679,7.453559925,3,2,-11.66666667,-1.521714754,-1,50,1,2164.327,1,2,2,2,2,2,2,2,2,2,2,2,2,2,100,1
3714617,28,Male,1,0,trial_1,,,0,,4712.715,3030.34,,"{""FishSmall"":0,""FishBig"":0,""CanSmall"":2,""CanBig"":2,""Seaweed"":2}","{""FishSmall"":3,""FishBig"":2,""CanSmall"":0,""CanBig"":0,""Seaweed"":1}",50,100,-10,11.66666667,8.164965809,6.871842709,2,1,21.66666667,-1.2931231,-1,50,1,1754.7225,1,2,2,2,2,2,2,2,2,2,2,2,2,2,100,1
3714617,28,Male,1,0,trial_2,,,,,4058.13,,,"{""FishSmall"":1,""FishBig"":4,""CanSmall"":0,""CanBig"":0,""Seaweed"":1}","{""FishSmall"":0,""FishBig"":0,""CanSmall"":2,""CanBig"":1,""Seaweed"":3}",50,50,15,-6.666666667,7.637626158,7.453559925,1,3,-21.66666667,-0.184066233,2,0,1,1754.7225,1,2,2,2,2,2,2,2,2,2,2,2,2,2,100,1
3714617,28,Male,1,0,trial_3,,,1,,4366.04,4212.515,,"{""FishSmall"":2,""FishBig"":1,""CanSmall"":1,""CanBig"":0,""Seaweed"":2}","{""FishSmall"":1,""FishBig"":0,""CanSmall"":3,""CanBig"":0,""Seaweed"":2}",50,50,5,-3.333333333,9.574271078,7.453559925,2,2,-8.333333333,-2.120711153,0,0,1,1754.7225,1,2,2,2,2,2,2,2,2,2,2,2,2,2,100,1
3714617,28,Male,1,0,trial_4,,,1,,1942.38,3110.84,,"{""FishSmall"":0,""FishBig"":0,""CanSmall"":3,""CanBig"":1,""Seaweed"":2}","{""FishSmall"":0,""FishBig"":0,""CanSmall"":3,""CanBig"":1,""Seaweed"":2}",50,50,-8.333333333,-8.333333333,6.871842709,6.871842709,2,2,0,0,0,0,1,1754.7225,1,2,2,2,2,2,2,2,2,2,2,2,2,2,100,1
3714617,28,Male,1,1,trial_5,,,,,6385.355,,,"{""FishSmall"":3,""FishBig"":0,""CanSmall"":1,""CanBig"":0,""Seaweed"":2}","{""FishSmall"":2,""FishBig"":2,""CanSmall"":0,""CanBig"":0,""Seaweed"":2}",0,0,3.333333333,10,7.453559925,8.164965809,2,2,6.666666667,0.711405884,0,0,1,1754.7225,1,2,2,2,2,2,2,2,2,2,2,2,2,2,100,1
3714617,28,Male,1,0,trial_6,,1,,,1479.87,,2613.01,"{""FishSmall"":2,""FishBig"":0,""CanSmall"":2,""CanBig"":0,""Seaweed"":2}","{""FishSmall"":2,""FishBig"":1,""CanSmall"":1,""CanBig"":0,""Seaweed"":2}",100,0,0,5,8.164965809,9.574271078,2,2,5,1.409305268,0,-100,1,1754.7225,1,2,2,2,2,2,2,2,2,2,2,2,2,2,100,1
3714617,28,Male,1,1,trial_7,,1,0,,2686.165,1456.625,8462.09,"{""FishSmall"":1,""FishBig"":0,""CanSmall"":2,""CanBig"":1,""Seaweed"":2}","{""FishSmall"":1,""FishBig"":0,""CanSmall"":2,""CanBig"":1,""Seaweed"":2}",50,100,-5,-5,9.574271078,9.574271078,2,2,0,0,0,50,1,1754.7225,1,2,2,2,2,2,2,2,2,2,2,2,2,2,100,1
3714617,28,Male,1,1,trial_8,,1,0,,1637.73,1239.355,2342.08,"{""FishSmall"":1,""FishBig"":0,""CanSmall"":5,""CanBig"":0,""Seaweed"":0}","{""FishSmall"":2,""FishBig"":1,""CanSmall"":1,""CanBig"":0,""Seaweed"":2}",100,100,-6.666666667,5,7.453559925,9.574271078,0,2,11.66666667,2.120711153,2,0,1,1754.7225,1,2,2,2,2,2,2,2,2,2,2,2,2,2,100,1
3714617,28,Male,1,1,trial_9,,0,1,,1258.54,1664.635,2666.775,"{""FishSmall"":5,""FishBig"":0,""CanSmall"":1,""CanBig"":0,""Seaweed"":0}","{""FishSmall"":1,""FishBig"":0,""CanSmall"":3,""CanBig"":1,""Seaweed"":1}",100,100,6.666666667,-6.666666667,7.453559925,9.428090416,0,1,-13.33333333,1.974530491,1,0,1,1754.7225,1,2,2,2,2,2,2,2,2,2,2,2,2,2,100,1
3714617,28,Male,1,1,trial_10,,,1,,3882.04,2557.985,,"{""FishSmall"":1,""FishBig"":1,""CanSmall"":1,""CanBig"":0,""Seaweed"":3}","{""FishSmall"":2,""FishBig"":0,""CanSmall"":2,""CanBig"":0,""Seaweed"":2}",0,100,3.333333333,0,9.428090416,8.164965809,3,2,-3.333333333,-1.263124607,-1,100,1,1754.7225,1,2,2,2,2,2,2,2,2,2,2,2,2,2,100,1
3714617,,,,,catch_1,0,,,2795.345,,,,"{""FishSmall"":4,""FishBig"":2,""CanSmall"":0,""CanBig"":0,""Seaweed"":0}","{""FishSmall"":4,""FishBig"":2,""CanSmall"":0,""CanBig"":0,""Seaweed"":0}",0,0,,,,,,,,,,,,,,,,,,,,,,,,,,,100,1
3714617,28,Male,1,1,trial_11,,,0,,1285.95,1322.36,,"{""FishSmall"":3,""FishBig"":1,""CanSmall"":1,""CanBig"":0,""Seaweed"":1}","{""FishSmall"":1,""FishBig"":0,""CanSmall"":2,""CanBig"":1,""Seaweed"":2}",0,100,6.666666667,-5,9.428090416,9.574271078,1,2,-11.66666667,0.146180662,1,100,1,1754.7225,1,2,2,2,2,2,2,2,2,2,2,2,2,2,100,1
3714617,28,Male,1,1,trial_12,,0,1,,7728.57,3945.245,1252.88,"{""FishSmall"":2,""FishBig"":4,""CanSmall"":0,""CanBig"":0,""Seaweed"":0}","{""FishSmall"":0,""FishBig"":0,""CanSmall"":2,""CanBig"":2,""Seaweed"":2}",100,50,16.66666667,-10,4.714045208,8.164965809,0,2,-26.66666667,3.450920601,2,-50,1,1754.7225,1,2,2,2,2,2,2,2,2,2,2,2,2,2,100,1
3714617,28,Male,1,0,trial_13,,1,,,2309.4,,1763.735,"{""FishSmall"":0,""FishBig"":0,""CanSmall"":3,""CanBig"":1,""Seaweed"":2}","{""FishSmall"":0,""FishBig"":0,""CanSmall"":2,""CanBig"":2,""Seaweed"":2}",100,0,-8.333333333,-10,6.871842709,8.164965809,2,2,-1.666666667,1.2931231,0,-100,1,1754.7225,1,2,2,2,2,2,2,2,2,2,2,2,2,2,100,1
3714617,28,Male,1,1,trial_14,,,1,,4257.99,8153.495,,"{""FishSmall"":1,""FishBig"":2,""CanSmall"":0,""CanBig"":0,""Seaweed"":3}","{""FishSmall"":0,""FishBig"":0,""CanSmall"":3,""CanBig"":1,""Seaweed"":2}",0,100,8.333333333,-8.333333333,8.975274679,6.871842709,3,2,-16.66666667,-2.103431969,-1,100,1,1754.7225,1,2,2,2,2,2,2,2,2,2,2,2,2,2,100,1
3714617,28,Male,1,1,trial_15,,0,1,,3206.205,1654.115,1784.145,"{""FishSmall"":3,""FishBig"":0,""CanSmall"":1,""CanBig"":0,""Seaweed"":2}","{""FishSmall"":1,""FishBig"":0,""CanSmall"":2,""CanBig"":1,""Seaweed"":2}",50,100,3.333333333,-5,7.453559925,9.574271078,2,2,-8.333333333,2.120711153,0,50,1,1754.7225,1,2,2,2,2,2,2,2,2,2,2,2,2,2,100,1
3714617,28,Male,1,0,trial_16,,0,,,6552.755,,3303.64,"{""FishSmall"":3,""FishBig"":1,""CanSmall"":0,""CanBig"":0,""Seaweed"":2}","{""FishSmall"":0,""FishBig"":0,""CanSmall"":1,""CanBig"":3,""Seaweed"":2}",50,0,8.333333333,-11.66666667,6.871842709,8.975274679,2,2,-20,2.103431969,0,-50,1,1754.7225,1,2,2,2,2,2,2,2,2,2,2,2,2,2,100,1
3714617,28,Male,1,0,trial_17,,0,,,3409.405,,1958.085,"{""FishSmall"":3,""FishBig"":2,""CanSmall"":0,""CanBig"":0,""Seaweed"":1}","{""FishSmall"":2,""FishBig"":1,""CanSmall"":0,""CanBig"":0,""Seaweed"":3}",50,50,11.66666667,6.666666667,6.871842709,7.453559925,1,3,-5,0.581717216,2,0,1,1754.7225,1,2,2,2,2,2,2,2,2,2,2,2,2,2,100,1
3714617,28,Male,1,0,trial_18,,,,,2542.305,,,"{""FishSmall"":1,""FishBig"":0,""CanSmall"":4,""CanBig"":0,""Seaweed"":1}","{""FishSmall"":1,""FishBig"":0,""CanSmall"":3,""CanBig"":1,""Seaweed"":1}",50,0,-5,-6.666666667,7.637626158,9.428090416,1,1,-1.666666667,1.790464258,0,-50,1,1754.7225,1,2,2,2,2,2,2,2,2,2,2,2,2,2,100,1
3714617,28,Male,1,0,trial_19,,,,,12014.545,,,"{""FishSmall"":3,""FishBig"":1,""CanSmall"":1,""CanBig"":0,""Seaweed"":1}","{""FishSmall"":2,""FishBig"":2,""CanSmall"":0,""CanBig"":0,""Seaweed"":2}",0,0,6.666666667,10,9.428090416,8.164965809,1,2,3.333333333,-1.263124607,1,0,1,1754.7225,1,2,2,2,2,2,2,2,2,2,2,2,2,2,100,1
3714617,28,Male,1,1,trial_20,,,1,,3312.17,6250.085,,"{""FishSmall"":2,""FishBig"":4,""CanSmall"":0,""CanBig"":0,""Seaweed"":0}","{""FishSmall"":0,""FishBig"":0,""CanSmall"":3,""CanBig"":2,""Seaweed"":1}",0,100,16.66666667,-11.66666667,4.714045208,6.871842709,0,1,-28.33333333,2.157797501,1,100,1,1754.7225,1,2,2,2,2,2,2,2,2,2,2,2,2,2,100,1
3714617,,,,,catch_2,1,,,1875.065,,,,"{""FishSmall"":0,""FishBig"":0,""CanSmall"":3,""CanBig"":3,""Seaweed"":0}","{""FishSmall"":0,""FishBig"":0,""CanSmall"":3,""CanBig"":3,""Seaweed"":0}",0,0,,,,,,,,,,,,,,,,,,,,,,,,,,,100,1
3714617,28,Male,1,1,trial_21,,,0,,3777.73,5374.545,,"{""FishSmall"":3,""FishBig"":1,""CanSmall"":1,""CanBig"":0,""Seaweed"":1}","{""FishSmall"":1,""FishBig"":3,""CanSmall"":0,""CanBig"":0,""Seaweed"":2}",0,100,6.666666667,11.66666667,9.428090416,8.975274679,1,2,5,-0.452815737,1,100,1,1754.7225,1,2,2,2,2,2,2,2,2,2,2,2,2,2,100,1
3714617,28,Male,1,1,trial_22,,,0,,1270.745,4660.465,,"{""FishSmall"":4,""FishBig"":0,""CanSmall"":1,""CanBig"":0,""Seaweed"":1}","{""FishSmall"":1,""FishBig"":4,""CanSmall"":0,""CanBig"":0,""Seaweed"":1}",0,50,5,15,7.637626158,7.637626158,1,1,10,0,0,50,1,1754.7225,1,2,2,2,2,2,2,2,2,2,2,2,2,2,100,1
3714617,28,Male,1,0,trial_23,,,,,5317.24,,,"{""FishSmall"":3,""FishBig"":2,""CanSmall"":0,""CanBig"":0,""Seaweed"":1}","{""FishSmall"":0,""FishBig"":0,""CanSmall"":6,""CanBig"":0,""Seaweed"":0}",0,0,11.66666667,-10,6.871842709,0,1,0,-21.66666667,-6.871842709,-1,0,1,1754.7225,1,2,2,2,2,2,2,2,2,2,2,2,2,2,100,1
3714617,28,Male,1,1,trial_24,,0,0,,4491.965,1136.935,1568.76,"{""FishSmall"":1,""FishBig"":4,""CanSmall"":0,""CanBig"":0,""Seaweed"":1}","{""FishSmall"":3,""FishBig"":2,""CanSmall"":0,""CanBig"":0,""Seaweed"":1}",100,50,15,11.66666667,7.637626158,6.871842709,1,1,-3.333333333,-0.765783449,0,-50,1,1754.7225,1,2,2,2,2,2,2,2,2,2,2,2,2,2,100,1
3714617,28,Male,1,0,trial_25,,0,,,1292.31,,3808.375,"{""FishSmall"":3,""FishBig"":1,""CanSmall"":1,""CanBig"":0,""Seaweed"":1}","{""FishSmall"":3,""FishBig"":0,""CanSmall"":0,""CanBig"":0,""Seaweed"":3}",50,0,6.666666667,5,9.428090416,5,1,3,-1.666666667,-4.428090416,2,-50,1,1754.7225,1,2,2,2,2,2,2,2,2,2,2,2,2,2,100,1
3714617,28,Male,1,0,trial_26,,0,,,1893.01,,8856.49,"{""FishSmall"":2,""FishBig"":1,""CanSmall"":1,""CanBig"":0,""Seaweed"":2}","{""FishSmall"":2,""FishBig"":1,""CanSmall"":1,""CanBig"":0,""Seaweed"":2}",100,50,5,5,9.574271078,9.574271078,2,2,0,0,0,-50,1,1754.7225,1,2,2,2,2,2,2,2,2,2,2,2,2,2,100,1
3714617,28,Male,1,1,trial_27,,,0,,2011.885,1149.03,,"{""FishSmall"":0,""FishBig"":0,""CanSmall"":2,""CanBig"":3,""Seaweed"":1}","{""FishSmall"":1,""FishBig"":0,""CanSmall"":2,""CanBig"":1,""Seaweed"":2}",0,100,-13.33333333,-5,7.453559925,9.574271078,1,2,8.333333333,2.120711153,1,100,1,1754.7225,1,2,2,2,2,2,2,2,2,2,2,2,2,2,100,1
3714617,28,Male,1,1,trial_28,,,,,1696.005,,,"{""FishSmall"":1,""FishBig"":0,""CanSmall"":5,""CanBig"":0,""Seaweed"":0}","{""FishSmall"":0,""FishBig"":0,""CanSmall"":1,""CanBig"":3,""Seaweed"":2}",0,50,-6.666666667,-11.66666667,7.453559925,8.975274679,0,2,-5,1.521714754,2,50,1,1754.7225,1,2,2,2,2,2,2,2,2,2,2,2,2,2,100,1
3714617,28,Male,1,0,trial_29,,1,,,1022.995,,2338.715,"{""FishSmall"":0,""FishBig"":0,""CanSmall"":5,""CanBig"":1,""Seaweed"":0}","{""FishSmall"":3,""FishBig"":1,""CanSmall"":1,""CanBig"":0,""Seaweed"":1}",50,0,-11.66666667,6.666666667,3.726779962,9.428090416,0,1,18.33333333,5.701310453,1,-50,1,1754.7225,1,2,2,2,2,2,2,2,2,2,2,2,2,2,100,1
3714617,28,Male,1,1,trial_30,,,1,,2635.85,1734.675,,"{""FishSmall"":1,""FishBig"":2,""CanSmall"":0,""CanBig"":0,""Seaweed"":3}","{""FishSmall"":1,""FishBig"":0,""CanSmall"":2,""CanBig"":1,""Seaweed"":2}",50,100,8.333333333,-5,8.975274679,9.574271078,3,2,-13.33333333,0.598996399,-1,50,1,1754.7225,1,2,2,2,2,2,2,2,2,2,2,2,2,2,100,1
3714618,29,Female,2,0,trial_1,,,,,2820,,,"{""FishSmall"":3,""FishBig"":0,""CanSmall"":1,""CanBig"":0,""Seaweed"":2}","{""FishSmall"":1,""FishBig"":0,""CanSmall"":2,""CanBig"":0,""Seaweed"":3}",50,0,3.333333333,-1.666666667,7.453559925,6.871842709,2,3,-5,-0.581717216,1,-50,1,1227.1,1,2,2,2,2,2,2,2,2,2,2,2,2,2,100,1
3714618,29,Female,2,1,trial_2,,0,0,,1292,1378,985,"{""FishSmall"":1,""FishBig"":3,""CanSmall"":0,""CanBig"":0,""Seaweed"":2}","{""FishSmall"":4,""FishBig"":1,""CanSmall"":1,""CanBig"":0,""Seaweed"":0}",100,100,11.66666667,8.333333333,8.975274679,8.975274679,2,0,-3.333333333,0,-2,0,1,1227.1,1,2,2,2,2,2,2,2,2,2,2,2,2,2,100,1
3714618,29,Female,2,0,trial_3,,1,,,9341,,2684,"{""FishSmall"":0,""FishBig"":0,""CanSmall"":3,""CanBig"":1,""Seaweed"":2}","{""FishSmall"":4,""FishBig"":1,""CanSmall"":0,""CanBig"":0,""Seaweed"":1}",100,0,-8.333333333,10,6.871842709,5.773502692,2,1,18.33333333,-1.098340017,-1,-100,1,1227.1,1,2,2,2,2,2,2,2,2,2,2,2,2,2,100,1
3714618,29,Female,2,0,trial_4,,,0,,6558,1060,,"{""FishSmall"":1,""FishBig"":2,""CanSmall"":0,""CanBig"":0,""Seaweed"":3}","{""FishSmall"":3,""FishBig"":0,""CanSmall"":2,""CanBig"":0,""Seaweed"":1}",0,100,8.333333333,1.666666667,8.975274679,8.975274679,3,1,-6.666666667,0,-2,100,1,1227.1,1,2,2,2,2,2,2,2,2,2,2,2,2,2,100,1
3714618,29,Female,2,0,trial_5,,0,0,,818,1284,971,"{""FishSmall"":1,""FishBig"":2,""CanSmall"":0,""CanBig"":0,""Seaweed"":3}","{""FishSmall"":1,""FishBig"":2,""CanSmall"":0,""CanBig"":0,""Seaweed"":3}",100,100,8.333333333,8.333333333,8.975274679,8.975274679,3,3,0,0,0,0,1,1227.1,1,2,2,2,2,2,2,2,2,2,2,2,2,2,100,1
3714618,29,Female,2,0,trial_6,,,1,,1638,944,,"{""FishSmall"":1,""FishBig"":1,""CanSmall"":1,""CanBig"":0,""Seaweed"":3}","{""FishSmall"":1,""FishBig"":0,""CanSmall"":4,""CanBig"":1,""Seaweed"":0}",0,100,3.333333333,-8.333333333,9.428090416,8.975274679,3,0,-11.66666667,-0.452815737,-3,100,1,1227.1,1,2,2,2,2,2,2,2,2,2,2,2,2,2,100,1
3714618,29,Female,2,1,trial_7,,1,,,2848,,2015,"{""FishSmall"":1,""FishBig"":0,""CanSmall"":4,""CanBig"":0,""Seaweed"":1}","{""FishSmall"":0,""FishBig"":0,""CanSmall"":3,""CanBig"":3,""Seaweed"":0}",100,0,-5,-15,7.637626158,5,1,0,-10,-2.637626158,-1,-100,1,1227.1,1,2,2,2,2,2,2,2,2,2,2,2,2,2,100,1
3714618,29,Female,2,1,trial_8,,,,,2225,,,"{""FishSmall"":2,""FishBig"":0,""CanSmall"":1,""CanBig"":0,""Seaweed"":3}","{""FishSmall"":3,""FishBig"":1,""CanSmall"":0,""CanBig"":0,""Seaweed"":2}",0,0,1.666666667,8.333333333,6.871842709,6.871842709,3,2,6.666666667,0,-1,0,1,1227.1,1,2,2,2,2,2,2,2,2,2,2,2,2,2,100,1
3714618,29,Female,2,0,trial_9,,,,,1249,,,"{""FishSmall"":1,""FishBig"":0,""CanSmall"":1,""CanBig"":1,""Seaweed"":3}","{""FishSmall"":1,""FishBig"":0,""CanSmall"":2,""CanBig"":1,""Seaweed"":2}",50,0,-3.333333333,-5,9.428090416,9.574271078,3,2,-1.666666667,0.146180662,-1,-50,1,1227.1,1,2,2,2,2,2,2,2,2,2,2,2,2,2,100,1
3714618,29,Female,2,1,trial_10,,,,,3972,,,"{""FishSmall"":1,""FishBig"":0,""CanSmall"":1,""CanBig"":1,""Seaweed"":3}","{""FishSmall"":0,""FishBig"":0,""CanSmall"":2,""CanBig"":1,""Seaweed"":3}",0,50,-3.333333333,-6.666666667,9.428090416,7.453559925,3,3,-3.333333333,-1.974530491,0,50,1,1227.1,1,2,2,2,2,2,2,2,2,2,2,2,2,2,100,1
3714618,,,,,catch_1,0,,,1763,,,,"{""FishSmall"":4,""FishBig"":2,""CanSmall"":0,""CanBig"":0,""Seaweed"":0}","{""FishSmall"":4,""FishBig"":2,""CanSmall"":0,""CanBig"":0,""Seaweed"":0}",0,0,,,,,,,,,,,,,,,,,,,,,,,,,,,100,1
3714618,29,Female,2,0,trial_11,,,,,9090,,,"{""FishSmall"":2,""FishBig"":1,""CanSmall"":1,""CanBig"":0,""Seaweed"":2}","{""FishSmall"":2,""FishBig"":1,""CanSmall"":1,""CanBig"":0,""Seaweed"":2}",50,0,5,5,9.574271078,9.574271078,2,2,0,0,0,-50,1,1227.1,1,2,2,2,2,2,2,2,2,2,2,2,2,2,100,1
3714618,29,Female,2,1,trial_12,,,1,,1257,860,,"{""FishSmall"":1,""FishBig"":0,""CanSmall"":3,""CanBig"":1,""Seaweed"":1}","{""FishSmall"":1,""FishBig"":0,""CanSmall"":1,""CanBig"":1,""Seaweed"":3}",0,100,-6.666666667,-3.333333333,9.428090416,9.428090416,1,3,3.333333333,1.78E-15,2,100,1,1227.1,1,2,2,2,2,2,2,2,2,2,2,2,2,2,100,1
3714618,29,Female,2,0,trial_13,,,1,,7581,1594,,"{""FishSmall"":3,""FishBig"":0,""CanSmall"":2,""CanBig"":0,""Seaweed"":1}","{""FishSmall"":0,""FishBig"":0,""CanSmall"":4,""CanBig"":2,""Seaweed"":0}",0,50,1.666666667,-13.33333333,8.975274679,4.714045208,1,0,-15,-4.261229471,-1,50,1,1227.1,1,2,2,2,2,2,2,2,2,2,2,2,2,2,100,1
3714618,29,Female,2,1,trial_14,,,1,,934,1267,,"{""FishSmall"":0,""FishBig"":0,""CanSmall"":1,""CanBig"":3,""Seaweed"":2}","{""FishSmall"":3,""FishBig"":0,""CanSmall"":0,""CanBig"":0,""Seaweed"":3}",0,100,-11.66666667,5,8.975274679,5,2,3,16.66666667,-3.975274679,1,100,1,1227.1,1,2,2,2,2,2,2,2,2,2,2,2,2,2,100,1
3714618,29,Female,2,1,trial_15,,,0,,1018,952,,"{""FishSmall"":0,""FishBig"":0,""CanSmall"":2,""CanBig"":3,""Seaweed"":1}","{""FishSmall"":3,""FishBig"":0,""CanSmall"":2,""CanBig"":0,""Seaweed"":1}",50,50,-13.33333333,1.666666667,7.453559925,8.975274679,1,1,15,1.521714754,0,0,1,1227.1,1,2,2,2,2,2,2,2,2,2,2,2,2,2,100,1
3714618,29,Female,2,1,trial_16,,1,,,1638,,1471,"{""FishSmall"":0,""FishBig"":0,""CanSmall"":3,""CanBig"":2,""Seaweed"":1}","{""FishSmall"":1,""FishBig"":0,""CanSmall"":3,""CanBig"":1,""Seaweed"":1}",100,0,-11.66666667,-6.666666667,6.871842709,9.428090416,1,1,5,2.556247706,0,-100,1,1227.1,1,2,2,2,2,2,2,2,2,2,2,2,2,2,100,1
3714618,29,Female,2,1,trial_17,,,1,,5093,1267,,"{""FishSmall"":1,""FishBig"":3,""CanSmall"":0,""CanBig"":0,""Seaweed"":2}","{""FishSmall"":3,""FishBig"":0,""CanSmall"":1,""CanBig"":0,""Seaweed"":2}",0,100,11.66666667,3.333333333,8.975274679,7.453559925,2,2,-8.333333333,-1.521714754,0,100,1,1227.1,1,2,2,2,2,2,2,2,2,2,2,2,2,2,100,1
3714618,29,Female,2,1,trial_18,,1,,,4243,,916,"{""FishSmall"":0,""FishBig"":0,""CanSmall"":1,""CanBig"":3,""Seaweed"":2}","{""FishSmall"":1,""FishBig"":0,""CanSmall"":5,""CanBig"":0,""Seaweed"":0}",50,0,-11.66666667,-6.666666667,8.975274679,7.453559925,2,0,5,-1.521714754,-2,-50,1,1227.1,1,2,2,2,2,2,2,2,2,2,2,2,2,2,100,1
3714618,29,Female,2,0,trial_19,,0,1,,3551,1145,1205,"{""FishSmall"":2,""FishBig"":1,""CanSmall"":1,""CanBig"":0,""Seaweed"":2}","{""FishSmall"":1,""FishBig"":0,""CanSmall"":4,""CanBig"":0,""Seaweed"":1}",100,100,5,-5,9.574271078,7.637626158,2,1,-10,-1.936644919,-1,0,1,1227.1,1,2,2,2,2,2,2,2,2,2,2,2,2,2,100,1
