subject_ID,age_in_years,age_in_months,gender,gender_coded,age_group,age_group_coded,info_choice,condition,catch_trials,fishing_choiceL,fishing_choiceR,RT_catch,RT_info_choice,RT_fishingL,RT_fishingR,items_countL,items_countR,agency_probL,agency_probR,EV_L,EV_R,EV_flashL,EV_flashR,SD_L,SD_R,uncertainty_level_L,uncertainty_level_R,delta_EV,delta_SD,delta_uncertainty_level,delta_agency,items_count_flashL,items_count_flashR,EV_at_fishingL,EV_at_fishingR,wob,avg_wob_RT,percent_comprehension,q1,q2,q3,q4,q5,q6,q7,q8,q9,q10,q11,q12,q13,catch_trials_score,trial_number,prop_correct_fishing,fishing_rewardL,fishing_rewardR,fishing_rewardL_rational_fishing,fishing_rewardR_rational_fishing,avg_fishing_reward,avg_fishing_reward_rational_fishing,reward_EV_info,reward_EV_no_info,reward_uncertainty_info,reward_uncertainty_no_info,reward_agency_info,reward_agency_no_info
6487920,5,60,Female,2,5-Apr,0,0,trial_1,,0,,,4959,4630,,"{""FishSmall"":2,""FishBig"":0,""CanSmall"":2,""CanBig"":0,""Seaweed"":2}","{""FishSmall"":0,""FishBig"":0,""CanSmall"":2,""CanBig"":2,""Seaweed"":2}",100,0,0,-10,3.333333333,-16.66666667,8.164965809,8.164965809,2,2,-10,0,0,-100,"{""FishSmall"":2,""FishBig"":0,""CanSmall"":1,""CanBig"":0,""Seaweed"":0}","{""FishSmall"":0,""FishBig"":0,""CanSmall"":1,""CanBig"":2,""Seaweed"":0}",3.333333333,-10,1,9950.3,0.807692308,2,1,2,2,1,1,1,1,2,2,2,2,2,100,1,0.625,-10,0,10,-10,1.166666667,2.166666667,3.333333333,-10,2,0,-10,0
6487920,5,60,Female,2,5-Apr,0,1,trial_2,,0,0,,12229,3909,4680,"{""FishSmall"":1,""FishBig"":0,""CanSmall"":1,""CanBig"":1,""Seaweed"":3}","{""FishSmall"":2,""FishBig"":0,""CanSmall"":4,""CanBig"":0,""Seaweed"":0}",100,100,-3.333333333,-3.333333333,6.666666667,-3.333333333,9.428090416,9.428090416,3,0,0,0,-3,0,"{""FishSmall"":1,""FishBig"":1,""CanSmall"":1,""CanBig"":0,""Seaweed"":0}","{""FishSmall"":1,""FishBig"":0,""CanSmall"":2,""CanBig"":0,""Seaweed"":0}",-3.333333333,-3.333333333,1,9950.3,0.807692308,2,1,2,2,1,1,1,1,2,2,2,2,2,100,2,0.625,-10,-10,0,0,1.166666667,2.166666667,-3.333333333,-3.333333333,0,0,-10,-10
6487920,5,60,Female,2,5-Apr,0,0,trial_3,,0,1,,8427,9329,8507,"{""FishSmall"":2,""FishBig"":1,""CanSmall"":1,""CanBig"":0,""Seaweed"":2}","{""FishSmall"":0,""FishBig"":0,""CanSmall"":1,""CanBig"":2,""Seaweed"":3}",100,50,5,-8.333333333,10,-13.33333333,9.574271078,8.975274679,2,3,-13.33333333,-0.598996399,1,-50,"{""FishSmall"":0,""FishBig"":2,""CanSmall"":1,""CanBig"":0,""Seaweed"":0}","{""FishSmall"":0,""FishBig"":0,""CanSmall"":2,""CanBig"":1,""Seaweed"":0}",10,-8.333333333,1,9950.3,0.807692308,2,1,2,2,1,1,1,1,2,2,2,2,2,100,3,0.625,20,0,-10,0,1.166666667,2.166666667,10,-8.333333333,2,0,20,0
6487920,5,60,Female,2,5-Apr,0,1,trial_4,,,0,,13951,,4375,"{""FishSmall"":3,""FishBig"":0,""CanSmall"":2,""CanBig"":0,""Seaweed"":1}","{""FishSmall"":1,""FishBig"":0,""CanSmall"":1,""CanBig"":1,""Seaweed"":3}",0,50,1.666666667,-3.333333333,3.333333333,-6.666666667,8.975274679,9.428090416,1,3,-5,0.452815737,2,50,"{""FishSmall"":2,""FishBig"":0,""CanSmall"":1,""CanBig"":0,""Seaweed"":0}","{""FishSmall"":1,""FishBig"":0,""CanSmall"":1,""CanBig"":1,""Seaweed"":0}",1.666666667,-6.666666667,1,9950.3,0.807692308,2,1,2,2,1,1,1,1,2,2,2,2,2,100,4,0.625,-10,10,10,0,1.166666667,2.166666667,-6.666666667,1.666666667,3,0,10,-10
6487920,5,60,Female,2,5-Apr,0,0,trial_5,,,0,,11366,,8820,"{""FishSmall"":0,""FishBig"":0,""CanSmall"":2,""CanBig"":2,""Seaweed"":2}","{""FishSmall"":1,""FishBig"":0,""CanSmall"":2,""CanBig"":1,""Seaweed"":2}",0,100,-10,-5,-16.66666667,-10,8.164965809,9.574271078,2,2,5,1.409305268,0,100,"{""FishSmall"":0,""FishBig"":0,""CanSmall"":1,""CanBig"":2,""Seaweed"":0}","{""FishSmall"":1,""FishBig"":0,""CanSmall"":0,""CanBig"":2,""Seaweed"":0}",-16.66666667,-5,1,9950.3,0.807692308,2,1,2,2,1,1,1,1,2,2,2,2,2,100,5,0.625,0,-20,0,0,1.166666667,2.166666667,-16.66666667,-5,2,0,0,-20
6487920,5,60,Female,2,5-Apr,0,1,trial_6,,,,,14182,,,"{""FishSmall"":4,""FishBig"":1,""CanSmall"":1,""CanBig"":0,""Seaweed"":0}","{""FishSmall"":0,""FishBig"":0,""CanSmall"":2,""CanBig"":1,""Seaweed"":3}",0,50,8.333333333,-6.666666667,10,0,8.975274679,7.453559925,0,3,-15,-1.521714754,3,50,"{""FishSmall"":3,""FishBig"":0,""CanSmall"":0,""CanBig"":0,""Seaweed"":0}","{""FishSmall"":0,""FishBig"":1,""CanSmall"":2,""CanBig"":0,""Seaweed"":0}",8.333333333,0,1,9950.3,0.807692308,2,1,2,2,1,1,1,1,2,2,2,2,2,100,6,0.625,10,0,10,20,1.166666667,2.166666667,0,8.333333333,3,0,0,10
6487920,5,60,Female,2,5-Apr,0,1,trial_7,,0,1,,20533,3636,16663,"{""FishSmall"":2,""FishBig"":0,""CanSmall"":2,""CanBig"":0,""Seaweed"":2}","{""FishSmall"":1,""FishBig"":0,""CanSmall"":2,""CanBig"":0,""Seaweed"":3}",100,100,0,-1.666666667,3.333333333,6.666666667,8.164965809,6.871842709,2,3,-1.666666667,-1.2931231,1,0,"{""FishSmall"":2,""FishBig"":0,""CanSmall"":1,""CanBig"":0,""Seaweed"":0}","{""FishSmall"":1,""FishBig"":1,""CanSmall"":1,""CanBig"":0,""Seaweed"":0}",0,6.666666667,1,9950.3,0.807692308,2,1,2,2,1,1,1,1,2,2,2,2,2,100,7,0.625,-10,0,0,20,1.166666667,2.166666667,6.666666667,0,3,0,0,-10
6487920,5,60,Female,2,5-Apr,0,0,trial_8,,0,0,,10577,21938,37139,"{""FishSmall"":0,""FishBig"":0,""CanSmall"":1,""CanBig"":2,""Seaweed"":3}","{""FishSmall"":0,""FishBig"":0,""CanSmall"":4,""CanBig"":0,""Seaweed"":2}",100,100,-8.333333333,-6.666666667,-6.666666667,0,8.975274679,4.714045208,3,2,1.666666667,-4.261229471,-1,0,"{""FishSmall"":0,""FishBig"":1,""CanSmall"":0,""CanBig"":2,""Seaweed"":0}","{""FishSmall"":0,""FishBig"":1,""CanSmall"":2,""CanBig"":0,""Seaweed"":0}",-6.666666667,-6.666666667,1,9950.3,0.807692308,2,1,2,2,1,1,1,1,2,2,2,2,2,100,8,0.625,20,20,0,0,1.166666667,2.166666667,-6.666666667,-6.666666667,3,0,20,20
6487920,5,60,Female,2,5-Apr,0,0,trial_9,,0,1,,60614,5378,10740,"{""FishSmall"":0,""FishBig"":0,""CanSmall"":1,""CanBig"":3,""Seaweed"":2}","{""FishSmall"":1,""FishBig"":0,""CanSmall"":3,""CanBig"":0,""Seaweed"":2}",100,100,-11.66666667,-3.333333333,-6.666666667,3.333333333,8.975274679,7.453559925,2,2,8.333333333,-1.521714754,0,0,"{""FishSmall"":0,""FishBig"":1,""CanSmall"":0,""CanBig"":2,""Seaweed"":0}","{""FishSmall"":2,""FishBig"":0,""CanSmall"":1,""CanBig"":0,""Seaweed"":0}",-6.666666667,-3.333333333,1,9950.3,0.807692308,2,1,2,2,1,1,1,1,2,2,2,2,2,100,9,0.625,-20,0,0,0,1.166666667,2.166666667,-6.666666667,-3.333333333,2,0,-20,0
6487920,5,60,Female,2,5-Apr,0,0,trial_10,,1,1,,7717,6709,6828,"{""FishSmall"":1,""FishBig"":0,""CanSmall"":2,""CanBig"":1,""Seaweed"":2}","{""FishSmall"":0,""FishBig"":0,""CanSmall"":4,""CanBig"":0,""Seaweed"":2}",100,100,-5,-6.666666667,-10,-10,9.574271078,4.714045208,2,2,-1.666666667,-4.86022587,0,0,"{""FishSmall"":0,""FishBig"":0,""CanSmall"":3,""CanBig"":0,""Seaweed"":0}","{""FishSmall"":0,""FishBig"":0,""CanSmall"":3,""CanBig"":0,""Seaweed"":0}",-10,-6.666666667,1,9950.3,0.807692308,2,1,2,2,1,1,1,1,2,2,2,2,2,100,10,0.625,0,0,0,0,1.166666667,2.166666667,-10,-6.666666667,2,0,0,0
6487920,5,60,Female,2,5-Apr,0,,catch_1,0,,,6436,,,,"{""FishSmall"":4,""FishBig"":2,""CanSmall"":0,""CanBig"":0,""Seaweed"":0}","{""FishSmall"":4,""FishBig"":2,""CanSmall"":0,""CanBig"":0,""Seaweed"":0}",0,0,,,,,,,,,,,,,"{""FishSmall"":2,""FishBig"":1,""CanSmall"":0,""CanBig"":0,""Seaweed"":0}","{""FishSmall"":2,""FishBig"":1,""CanSmall"":0,""CanBig"":0,""Seaweed"":0}",,,1,9950.3,0.807692308,2,1,2,2,1,1,1,1,2,2,2,2,2,100,,0.625,,,,,,,,,,,,
6487920,5,60,Female,2,5-Apr,0,0,trial_11,,,,,12982,,,"{""FishSmall"":0,""FishBig"":4,""CanSmall"":0,""CanBig"":0,""Seaweed"":2}","{""FishSmall"":0,""FishBig"":0,""CanSmall"":3,""CanBig"":2,""Seaweed"":1}",0,0,13.33333333,-11.66666667,16.66666667,-13.33333333,9.428090416,6.871842709,2,1,-25,-2.556247706,-1,0,"{""FishSmall"":1,""FishBig"":2,""CanSmall"":0,""CanBig"":0,""Seaweed"":0}","{""FishSmall"":0,""FishBig"":0,""CanSmall"":2,""CanBig"":1,""Seaweed"":0}",16.66666667,-11.66666667,1,9950.3,0.807692308,2,1,2,2,1,1,1,1,2,2,2,2,2,100,11,0.625,0,0,0,-20,1.166666667,2.166666667,16.66666667,-11.66666667,2,0,0,0
6487920,5,60,Female,2,5-Apr,0,1,trial_12,,,0,,6006,,6883,"{""FishSmall"":0,""FishBig"":0,""CanSmall"":2,""CanBig"":3,""Seaweed"":1}","{""FishSmall"":2,""FishBig"":1,""CanSmall"":1,""CanBig"":0,""Seaweed"":2}",0,100,-13.33333333,5,-3.333333333,13.33333333,7.453559925,9.574271078,1,2,18.33333333,2.120711153,1,100,"{""FishSmall"":0,""FishBig"":1,""CanSmall"":1,""CanBig"":1,""Seaweed"":0}","{""FishSmall"":2,""FishBig"":1,""CanSmall"":0,""CanBig"":0,""Seaweed"":0}",-13.33333333,13.33333333,1,9950.3,0.807692308,2,1,2,2,1,1,1,1,2,2,2,2,2,100,12,0.625,0,20,20,20,1.166666667,2.166666667,13.33333333,-13.33333333,2,0,20,0
6487920,5,60,Female,2,5-Apr,0,0,trial_13,,1,0,,7785,9979,9629,"{""FishSmall"":3,""FishBig"":1,""CanSmall"":1,""CanBig"":0,""Seaweed"":1}","{""FishSmall"":2,""FishBig"":4,""CanSmall"":0,""CanBig"":0,""Seaweed"":0}",100,50,6.666666667,16.66666667,-6.666666667,16.66666667,9.428090416,4.714045208,1,0,10,-4.714045208,-1,-50,"{""FishSmall"":1,""FishBig"":0,""CanSmall"":1,""CanBig"":1,""Seaweed"":0}","{""FishSmall"":1,""FishBig"":2,""CanSmall"":0,""CanBig"":0,""Seaweed"":0}",-6.666666667,16.66666667,1,9950.3,0.807692308,2,1,2,2,1,1,1,1,2,2,2,2,2,100,13,0.625,0,20,0,20,1.166666667,2.166666667,-6.666666667,16.66666667,1,0,0,20
6487920,5,60,Female,2,5-Apr,0,0,trial_14,,,,,12223,,,"{""FishSmall"":3,""FishBig"":1,""CanSmall"":0,""CanBig"":0,""Seaweed"":2}","{""FishSmall"":5,""FishBig"":0,""CanSmall"":0,""CanBig"":0,""Seaweed"":1}",50,0,8.333333333,8.333333333,0,10,6.871842709,3.726779962,2,1,0,-3.145062747,-1,-50,"{""FishSmall"":2,""FishBig"":0,""CanSmall"":0,""CanBig"":1,""Seaweed"":0}","{""FishSmall"":3,""FishBig"":0,""CanSmall"":0,""CanBig"":0,""Seaweed"":0}",0,8.333333333,1,9950.3,0.807692308,2,1,2,2,1,1,1,1,2,2,2,2,2,100,14,0.625,0,0,10,0,1.166666667,2.166666667,0,8.333333333,2,0,0,0
6487920,5,60,Female,2,5-Apr,0,0,trial_15,,1,1,,4522,8629,9847,"{""FishSmall"":2,""FishBig"":0,""CanSmall"":2,""CanBig"":0,""Seaweed"":2}","{""FishSmall"":2,""FishBig"":0,""CanSmall"":1,""CanBig"":0,""Seaweed"":3}",100,50,0,1.666666667,-3.333333333,3.333333333,8.164965809,6.871842709,2,3,1.666666667,-1.2931231,1,-50,"{""FishSmall"":1,""FishBig"":0,""CanSmall"":2,""CanBig"":0,""Seaweed"":0}","{""FishSmall"":2,""FishBig"":0,""CanSmall"":1,""CanBig"":0,""Seaweed"":0}",-3.333333333,1.666666667,1,9950.3,0.807692308,2,1,2,2,1,1,1,1,2,2,2,2,2,100,15,0.625,0,0,0,-10,1.166666667,2.166666667,-3.333333333,1.666666667,2,0,0,0
6487920,5,60,Female,2,5-Apr,0,1,trial_16,,,1,,3632,,1924,"{""FishSmall"":2,""FishBig"":0,""CanSmall"":2,""CanBig"":0,""Seaweed"":2}","{""FishSmall"":1,""FishBig"":4,""CanSmall"":0,""CanBig"":0,""Seaweed"":1}",0,100,0,15,3.333333333,20,8.164965809,7.637626158,2,1,15,-0.527339651,-1,100,"{""FishSmall"":2,""FishBig"":0,""CanSmall"":1,""CanBig"":0,""Seaweed"":0}","{""FishSmall"":0,""FishBig"":3,""CanSmall"":0,""CanBig"":0,""Seaweed"":0}",0,20,1,9950.3,0.807692308,2,1,2,2,1,1,1,1,2,2,2,2,2,100,16,0.625,10,0,0,20,1.166666667,2.166666667,20,0,1,0,0,10
6487920,5,60,Female,2,5-Apr,0,1,trial_17,,,1,,7476,,5312,"{""FishSmall"":1,""FishBig"":0,""CanSmall"":4,""CanBig"":0,""Seaweed"":1}","{""FishSmall"":2,""FishBig"":1,""CanSmall"":1,""CanBig"":0,""Seaweed"":2}",50,100,-5,5,-3.333333333,-6.666666667,7.637626158,9.574271078,1,2,10,1.936644919,1,50,"{""FishSmall"":1,""FishBig"":0,""CanSmall"":2,""CanBig"":0,""Seaweed"":0}","{""FishSmall"":1,""FishBig"":0,""CanSmall"":1,""CanBig"":1,""Seaweed"":0}",-5,-6.666666667,1,9950.3,0.807692308,2,1,2,2,1,1,1,1,2,2,2,2,2,100,17,0.625,-10,0,10,0,1.166666667,2.166666667,-6.666666667,-5,2,0,0,-10
6487920,5,60,Female,2,5-Apr,0,1,trial_18,,,,,3509,,,"{""FishSmall"":0,""FishBig"":0,""CanSmall"":1,""CanBig"":4,""Seaweed"":1}","{""FishSmall"":3,""FishBig"":0,""CanSmall"":0,""CanBig"":0,""Seaweed"":3}",50,50,-15,5,-16.66666667,3.333333333,7.637626158,5,1,3,20,-2.637626158,2,0,"{""FishSmall"":0,""FishBig"":0,""CanSmall"":1,""CanBig"":2,""Seaweed"":0}","{""FishSmall"":2,""FishBig"":0,""CanSmall"":1,""CanBig"":0,""Seaweed"":0}",-15,3.333333333,1,9950.3,0.807692308,2,1,2,2,1,1,1,1,2,2,2,2,2,100,18,0.625,0,0,0,-10,1.166666667,2.166666667,3.333333333,-15,3,0,0,0
6487920,5,60,Female,2,5-Apr,0,1,trial_19,,0,1,,1573,7404,1434,"{""FishSmall"":3,""FishBig"":2,""CanSmall"":0,""CanBig"":0,""Seaweed"":1}","{""FishSmall"":3,""FishBig"":1,""CanSmall"":1,""CanBig"":0,""Seaweed"":1}",100,100,11.66666667,6.666666667,0,0,6.871842709,9.428090416,1,1,-5,2.556247706,0,0,"{""FishSmall"":2,""FishBig"":0,""CanSmall"":0,""CanBig"":1,""Seaweed"":0}","{""FishSmall"":2,""FishBig"":0,""CanSmall"":0,""CanBig"":1,""Seaweed"":0}",11.66666667,0,1,9950.3,0.807692308,2,1,2,2,1,1,1,1,2,2,2,2,2,100,19,0.625,-20,0,10,0,1.166666667,2.166666667,0,11.66666667,1,0,0,-20
6487920,5,60,Female,2,5-Apr,0,1,trial_20,,0,0,,6480,20862,7077,"{""FishSmall"":0,""FishBig"":0,""CanSmall"":1,""CanBig"":3,""Seaweed"":2}","{""FishSmall"":0,""FishBig"":0,""CanSmall"":2,""CanBig"":2,""Seaweed"":2}",50,100,-11.66666667,-10,-20,-3.333333333,8.975274679,8.164965809,2,2,1.666666667,-0.810308869,0,50,"{""FishSmall"":0,""FishBig"":0,""CanSmall"":0,""CanBig"":3,""Seaweed"":0}","{""FishSmall"":0,""FishBig"":1,""CanSmall"":1,""CanBig"":1,""Seaweed"":0}",-11.66666667,-3.333333333,1,9950.3,0.807692308,2,1,2,2,1,1,1,1,2,2,2,2,2,100,20,0.625,-20,20,0,0,1.166666667,2.166666667,-3.333333333,-11.66666667,2,0,20,-20
6487920,5,60,Female,2,5-Apr,0,,catch_2,1,,,5835,,,,"{""FishSmall"":0,""FishBig"":0,""CanSmall"":3,""CanBig"":3,""Seaweed"":0}","{""FishSmall"":0,""FishBig"":0,""CanSmall"":3,""CanBig"":3,""Seaweed"":0}",0,0,,,,,,,,,,,,,"{""FishSmall"":0,""FishBig"":0,""CanSmall"":1,""CanBig"":2,""Seaweed"":0}","{""FishSmall"":0,""FishBig"":0,""CanSmall"":1,""CanBig"":2,""Seaweed"":0}",,,1,9950.3,0.807692308,2,1,2,2,1,1,1,1,2,2,2,2,2,100,,0.625,,,,,,,,,,,,
6487920,5,60,Female,2,5-Apr,0,0,trial_21,,0,,,10683,6658,,"{""FishSmall"":1,""FishBig"":3,""CanSmall"":0,""CanBig"":0,""Seaweed"":2}","{""FishSmall"":2,""FishBig"":1,""CanSmall"":0,""CanBig"":0,""Seaweed"":3}",100,50,11.66666667,6.666666667,10,-6.666666667,8.975274679,7.453559925,2,3,-5,-1.521714754,1,-50,"{""FishSmall"":0,""FishBig"":2,""CanSmall"":1,""CanBig"":0,""Seaweed"":0}","{""FishSmall"":1,""FishBig"":0,""CanSmall"":1,""CanBig"":1,""Seaweed"":0}",10,6.666666667,1,9950.3,0.807692308,2,1,2,2,1,1,1,1,2,2,2,2,2,100,21,0.625,20,-10,-10,0,1.166666667,2.166666667,10,6.666666667,2,0,20,-10
6487920,5,60,Female,2,5-Apr,0,1,trial_22,,,0,,16977,,3470,"{""FishSmall"":1,""FishBig"":0,""CanSmall"":3,""CanBig"":0,""Seaweed"":2}","{""FishSmall"":2,""FishBig"":1,""CanSmall"":1,""CanBig"":0,""Seaweed"":2}",50,100,-3.333333333,5,0,6.666666667,7.453559925,9.574271078,2,2,8.333333333,2.120711153,0,50,"{""FishSmall"":0,""FishBig"":1,""CanSmall"":2,""CanBig"":0,""Seaweed"":0}","{""FishSmall"":1,""FishBig"":1,""CanSmall"":1,""CanBig"":0,""Seaweed"":0}",-3.333333333,6.666666667,1,9950.3,0.807692308,2,1,2,2,1,1,1,1,2,2,2,2,2,100,22,0.625,0,20,0,20,1.166666667,2.166666667,6.666666667,-3.333333333,2,0,20,0
6487920,5,60,Female,2,5-Apr,0,1,trial_23,,,,,4930,,,"{""FishSmall"":2,""FishBig"":0,""CanSmall"":3,""CanBig"":0,""Seaweed"":1}","{""FishSmall"":1,""FishBig"":2,""CanSmall"":0,""CanBig"":0,""Seaweed"":3}",0,0,-1.666666667,8.333333333,6.666666667,16.66666667,8.975274679,8.975274679,1,3,10,0,2,0,"{""FishSmall"":1,""FishBig"":1,""CanSmall"":1,""CanBig"":0,""Seaweed"":0}","{""FishSmall"":1,""FishBig"":2,""CanSmall"":0,""CanBig"":0,""Seaweed"":0}",-1.666666667,16.66666667,1,9950.3,0.807692308,2,1,2,2,1,1,1,1,2,2,2,2,2,100,23,0.625,0,10,0,0,1.166666667,2.166666667,16.66666667,-1.666666667,3,0,10,0
6487920,5,60,Female,2,5-Apr,0,0,trial_24,,,,,26003,,,"{""FishSmall"":2,""FishBig"":3,""CanSmall"":0,""CanBig"":0,""Seaweed"":1}","{""FishSmall"":1,""FishBig"":0,""CanSmall"":2,""CanBig"":1,""Seaweed"":2}",0,0,13.33333333,-5,16.66666667,0,7.453559925,9.574271078,1,2,-18.33333333,2.120711153,1,0,"{""FishSmall"":1,""FishBig"":2,""CanSmall"":0,""CanBig"":0,""Seaweed"":0}","{""FishSmall"":2,""FishBig"":0,""CanSmall"":0,""CanBig"":1,""Seaweed"":0}",16.66666667,-5,1,9950.3,0.807692308,2,1,2,2,1,1,1,1,2,2,2,2,2,100,24,0.625,10,-20,10,-20,1.166666667,2.166666667,16.66666667,-5,1,0,10,-20
6487920,5,60,Female,2,5-Apr,0,0,trial_25,,0,,,42521,3661,,"{""FishSmall"":4,""FishBig"":2,""CanSmall"":0,""CanBig"":0,""Seaweed"":0}","{""FishSmall"":0,""FishBig"":0,""CanSmall"":2,""CanBig"":3,""Seaweed"":1}",100,50,13.33333333,-13.33333333,13.33333333,-16.66666667,4.714045208,7.453559925,0,1,-26.66666667,2.739514717,1,-50,"{""FishSmall"":2,""FishBig"":1,""CanSmall"":0,""CanBig"":0,""Seaweed"":0}","{""FishSmall"":0,""FishBig"":0,""CanSmall"":1,""CanBig"":2,""Seaweed"":0}",13.33333333,-13.33333333,1,9950.3,0.807692308,2,1,2,2,1,1,1,1,2,2,2,2,2,100,25,0.625,20,0,20,-20,1.166666667,2.166666667,13.33333333,-13.33333333,0,0,20,0
6487920,5,60,Female,2,5-Apr,0,0,trial_26,,0,,,12323,6847,,"{""FishSmall"":2,""FishBig"":2,""CanSmall"":0,""CanBig"":0,""Seaweed"":2}","{""FishSmall"":1,""FishBig"":0,""CanSmall"":2,""CanBig"":1,""Seaweed"":2}",50,0,10,-5,16.66666667,-3.333333333,8.164965809,9.574271078,2,2,-15,1.409305268,0,-50,"{""FishSmall"":1,""FishBig"":2,""CanSmall"":0,""CanBig"":0,""Seaweed"":0}","{""FishSmall"":1,""FishBig"":0,""CanSmall"":2,""CanBig"":0,""Seaweed"":0}",16.66666667,-5,1,9950.3,0.807692308,2,1,2,2,1,1,1,1,2,2,2,2,2,100,26,0.625,20,0,20,10,1.166666667,2.166666667,16.66666667,-5,2,0,20,0
6487920,5,60,Female,2,5-Apr,0,0,trial_27,,,,,5492,,,"{""FishSmall"":3,""FishBig"":0,""CanSmall"":2,""CanBig"":0,""Seaweed"":1}","{""FishSmall"":1,""FishBig"":0,""CanSmall"":4,""CanBig"":0,""Seaweed"":1}",0,0,1.666666667,-5,3.333333333,-10,8.975274679,7.637626158,1,1,-6.666666667,-1.33764852,0,0,"{""FishSmall"":2,""FishBig"":0,""CanSmall"":1,""CanBig"":0,""Seaweed"":0}","{""FishSmall"":0,""FishBig"":0,""CanSmall"":3,""CanBig"":0,""Seaweed"":0}",3.333333333,-5,1,9950.3,0.807692308,2,1,2,2,1,1,1,1,2,2,2,2,2,100,27,0.625,0,-10,-10,-10,1.166666667,2.166666667,3.333333333,-5,1,0,0,-10
6487920,5,60,Female,2,5-Apr,0,0,trial_28,,,,,24479,,,"{""FishSmall"":2,""FishBig"":1,""CanSmall"":1,""CanBig"":0,""Seaweed"":2}","{""FishSmall"":1,""FishBig"":0,""CanSmall"":3,""CanBig"":1,""Seaweed"":1}",50,50,5,-6.666666667,-3.333333333,-3.333333333,9.574271078,9.428090416,2,1,-11.66666667,-0.146180662,-1,0,"{""FishSmall"":1,""FishBig"":0,""CanSmall"":2,""CanBig"":0,""Seaweed"":0}","{""FishSmall"":1,""FishBig"":0,""CanSmall"":2,""CanBig"":0,""Seaweed"":0}",-3.333333333,-6.666666667,1,9950.3,0.807692308,2,1,2,2,1,1,1,1,2,2,2,2,2,100,28,0.625,0,-10,0,-10,1.166666667,2.166666667,-3.333333333,-6.666666667,2,0,0,-10
6487920,5,60,Female,2,5-Apr,0,1,trial_29,,,1,,9639,,5085,"{""FishSmall"":0,""FishBig"":0,""CanSmall"":0,""CanBig"":4,""Seaweed"":2}","{""FishSmall"":0,""FishBig"":0,""CanSmall"":1,""CanBig"":4,""Seaweed"":1}",50,100,-13.33333333,-15,-6.666666667,-16.66666667,9.428090416,7.637626158,2,1,-1.666666667,-1.790464258,-1,50,"{""FishSmall"":0,""FishBig"":1,""CanSmall"":0,""CanBig"":2,""Seaweed"":0}","{""FishSmall"":0,""FishBig"":0,""CanSmall"":1,""CanBig"":2,""Seaweed"":0}",-13.33333333,-16.66666667,1,9950.3,0.807692308,2,1,2,2,1,1,1,1,2,2,2,2,2,100,29,0.625,0,0,0,0,1.166666667,2.166666667,-16.66666667,-13.33333333,1,0,0,0
6487920,5,60,Female,2,5-Apr,0,0,trial_30,,1,,,27384,10089,,"{""FishSmall"":0,""FishBig"":0,""CanSmall"":0,""CanBig"":5,""Seaweed"":1}","{""FishSmall"":3,""FishBig"":1,""CanSmall"":0,""CanBig"":0,""Seaweed"":2}",50,50,-16.66666667,8.333333333,-16.66666667,0,7.453559925,6.871842709,1,2,25,-0.581717216,1,0,"{""FishSmall"":0,""FishBig"":0,""CanSmall"":1,""CanBig"":2,""Seaweed"":0}","{""FishSmall"":2,""FishBig"":0,""CanSmall"":0,""CanBig"":1,""Seaweed"":0}",-16.66666667,8.333333333,1,9950.3,0.807692308,2,1,2,2,1,1,1,1,2,2,2,2,2,100,30,0.625,0,10,0,10,1.166666667,2.166666667,-16.66666667,8.333333333,1,0,0,10
6487966,10,127,Male,1,12-Oct,3,0,trial_1,,1,0,,2984,3805,3775,"{""FishSmall"":1,""FishBig"":0,""CanSmall"":2,""CanBig"":1,""Seaweed"":2}","{""FishSmall"":1,""FishBig"":0,""CanSmall"":3,""CanBig"":0,""Seaweed"":2}",50,100,-5,-3.333333333,-10,10,9.574271078,7.453559925,2,2,1.666666667,-2.120711153,0,50,"{""FishSmall"":1,""FishBig"":0,""CanSmall"":0,""CanBig"":2,""Seaweed"":0}","{""FishSmall"":0,""FishBig"":2,""CanSmall"":1,""CanBig"":0,""Seaweed"":0}",-10,-3.333333333,1,941.2,1,2,2,2,2,2,2,2,2,2,2,2,2,2,100,1,0.838709677,0,-10,0,0,2.333333333,2,-10,-3.333333333,2,0,0,-10
6487966,10,127,Male,1,12-Oct,3,1,trial_2,,,0,,3324,,840,"{""FishSmall"":3,""FishBig"":0,""CanSmall"":1,""CanBig"":0,""Seaweed"":2}","{""FishSmall"":2,""FishBig"":1,""CanSmall"":1,""CanBig"":0,""Seaweed"":2}",50,50,3.333333333,5,6.666666667,3.333333333,7.453559925,9.574271078,2,2,1.666666667,2.120711153,0,0,"{""FishSmall"":1,""FishBig"":1,""CanSmall"":1,""CanBig"":0,""Seaweed"":0}","{""FishSmall"":1,""FishBig"":1,""CanSmall"":0,""CanBig"":1,""Seaweed"":0}",3.333333333,3.333333333,1,941.2,1,2,2,2,2,2,2,2,2,2,2,2,2,2,100,2,0.838709677,-10,-20,-10,-20,2.333333333,2,3.333333333,3.333333333,2,0,-20,-10
6487966,10,127,Male,1,12-Oct,3,1,trial_3,,1,0,,4332,3522,1565,"{""FishSmall"":0,""FishBig"":0,""CanSmall"":4,""CanBig"":2,""Seaweed"":0}","{""FishSmall"":5,""FishBig"":1,""CanSmall"":0,""CanBig"":0,""Seaweed"":0}",50,50,-13.33333333,11.66666667,-13.33333333,10,4.714045208,3.726779962,0,0,25,-0.987265245,0,0,"{""FishSmall"":0,""FishBig"":0,""CanSmall"":2,""CanBig"":1,""Seaweed"":0}","{""FishSmall"":3,""FishBig"":0,""CanSmall"":0,""CanBig"":0,""Seaweed"":0}",-13.33333333,10,1,941.2,1,2,2,2,2,2,2,2,2,2,2,2,2,2,100,3,0.838709677,0,10,0,10,2.333333333,2,10,-13.33333333,0,0,10,0
6487966,10,127,Male,1,12-Oct,3,1,trial_4,,,1,,8275,,1663,"{""FishSmall"":1,""FishBig"":0,""CanSmall"":1,""CanBig"":1,""Seaweed"":3}","{""FishSmall"":1,""FishBig"":0,""CanSmall"":1,""CanBig"":1,""Seaweed"":3}",50,100,-3.333333333,-3.333333333,-6.666666667,3.333333333,9.428090416,9.428090416,3,3,0,0,0,50,"{""FishSmall"":1,""FishBig"":0,""CanSmall"":1,""CanBig"":1,""Seaweed"":0}","{""FishSmall"":2,""FishBig"":0,""CanSmall"":1,""CanBig"":0,""Seaweed"":0}",-3.333333333,3.333333333,1,941.2,1,2,2,2,2,2,2,2,2,2,2,2,2,2,100,4,0.838709677,0,0,0,-10,2.333333333,2,3.333333333,-3.333333333,3,0,0,0
6487966,10,127,Male,1,12-Oct,3,1,trial_5,,1,,,1255,2207,,"{""FishSmall"":0,""FishBig"":0,""CanSmall"":2,""CanBig"":4,""Seaweed"":0}","{""FishSmall"":3,""FishBig"":0,""CanSmall"":2,""CanBig"":0,""Seaweed"":1}",50,0,-16.66666667,1.666666667,-16.66666667,3.333333333,4.714045208,8.975274679,0,1,18.33333333,4.261229471,1,-50,"{""FishSmall"":0,""FishBig"":0,""CanSmall"":1,""CanBig"":2,""Seaweed"":0}","{""FishSmall"":2,""FishBig"":0,""CanSmall"":1,""CanBig"":0,""Seaweed"":0}",-16.66666667,3.333333333,1,941.2,1,2,2,2,2,2,2,2,2,2,2,2,2,2,100,5,0.838709677,0,0,0,-10,2.333333333,2,3.333333333,-16.66666667,1,0,0,0
6487966,10,127,Male,1,12-Oct,3,1,trial_6,,,0,,2499,,1794,"{""FishSmall"":2,""FishBig"":0,""CanSmall"":2,""CanBig"":0,""Seaweed"":2}","{""FishSmall"":2,""FishBig"":1,""CanSmall"":1,""CanBig"":0,""Seaweed"":2}",50,100,0,5,6.666666667,16.66666667,8.164965809,9.574271078,2,2,5,1.409305268,0,50,"{""FishSmall"":1,""FishBig"":1,""CanSmall"":1,""CanBig"":0,""Seaweed"":0}","{""FishSmall"":1,""FishBig"":2,""CanSmall"":0,""CanBig"":0,""Seaweed"":0}",0,16.66666667,1,941.2,1,2,2,2,2,2,2,2,2,2,2,2,2,2,100,6,0.838709677,0,20,0,10,2.333333333,2,16.66666667,0,2,0,20,0
6487966,10,127,Male,1,12-Oct,3,1,trial_7,,0,0,,1816,4230,1367,"{""FishSmall"":1,""FishBig"":0,""CanSmall"":1,""CanBig"":1,""Seaweed"":3}","{""FishSmall"":1,""FishBig"":3,""CanSmall"":0,""CanBig"":0,""Seaweed"":2}",100,100,-3.333333333,11.66666667,6.666666667,16.66666667,9.428090416,8.975274679,3,2,15,-0.452815737,-1,0,"{""FishSmall"":1,""FishBig"":1,""CanSmall"":1,""CanBig"":0,""Seaweed"":0}","{""FishSmall"":1,""FishBig"":2,""CanSmall"":0,""CanBig"":0,""Seaweed"":0}",-3.333333333,16.66666667,1,941.2,1,2,2,2,2,2,2,2,2,2,2,2,2,2,100,7,0.838709677,10,10,0,20,2.333333333,2,16.66666667,-3.333333333,2,0,10,10
6487966,10,127,Male,1,12-Oct,3,0,trial_8,,1,,,2025,2697,,"{""FishSmall"":0,""FishBig"":0,""CanSmall"":4,""CanBig"":1,""Seaweed"":1}","{""FishSmall"":2,""FishBig"":1,""CanSmall"":1,""CanBig"":0,""Seaweed"":2}",50,50,-10,5,-3.333333333,13.33333333,5.773502692,9.574271078,1,2,15,3.800768386,1,0,"{""FishSmall"":1,""FishBig"":0,""CanSmall"":2,""CanBig"":0,""Seaweed"":0}","{""FishSmall"":2,""FishBig"":1,""CanSmall"":0,""CanBig"":0,""Seaweed"":0}",-3.333333333,5,1,941.2,1,2,2,2,2,2,2,2,2,2,2,2,2,2,100,8,0.838709677,0,10,0,0,2.333333333,2,-3.333333333,5,1,0,0,10
6487966,10,127,Male,1,12-Oct,3,0,trial_9,,1,,,2389,3204,,"{""FishSmall"":1,""FishBig"":0,""CanSmall"":3,""CanBig"":0,""Seaweed"":2}","{""FishSmall"":2,""FishBig"":0,""CanSmall"":2,""CanBig"":0,""Seaweed"":2}",100,0,-3.333333333,0,-3.333333333,6.666666667,7.453559925,8.164965809,2,2,3.333333333,0.711405884,0,-100,"{""FishSmall"":1,""FishBig"":0,""CanSmall"":2,""CanBig"":0,""Seaweed"":0}","{""FishSmall"":1,""FishBig"":1,""CanSmall"":1,""CanBig"":0,""Seaweed"":0}",-3.333333333,0,1,941.2,1,2,2,2,2,2,2,2,2,2,2,2,2,2,100,9,0.838709677,0,20,0,-10,2.333333333,2,-3.333333333,0,2,0,0,20
6487966,10,127,Male,1,12-Oct,3,1,trial_10,,,0,,907,,2093,"{""FishSmall"":2,""FishBig"":0,""CanSmall"":2,""CanBig"":0,""Seaweed"":2}","{""FishSmall"":1,""FishBig"":2,""CanSmall"":0,""CanBig"":0,""Seaweed"":3}",50,50,0,8.333333333,-6.666666667,6.666666667,8.164965809,8.975274679,2,3,8.333333333,0.810308869,1,0,"{""FishSmall"":1,""FishBig"":0,""CanSmall"":1,""CanBig"":1,""Seaweed"":0}","{""FishSmall"":1,""FishBig"":1,""CanSmall"":1,""CanBig"":0,""Seaweed"":0}",0,6.666666667,1,941.2,1,2,2,2,2,2,2,2,2,2,2,2,2,2,100,10,0.838709677,0,10,0,-10,2.333333333,2,6.666666667,0,3,0,10,0
6487966,10,127,Male,1,12-Oct,3,,catch_1,0,,,3745,,,,"{""FishSmall"":4,""FishBig"":2,""CanSmall"":0,""CanBig"":0,""Seaweed"":0}","{""FishSmall"":4,""FishBig"":2,""CanSmall"":0,""CanBig"":0,""Seaweed"":0}",0,0,,,,,,,,,,,,,"{""FishSmall"":1,""FishBig"":2,""CanSmall"":0,""CanBig"":0,""Seaweed"":0}","{""FishSmall"":1,""FishBig"":2,""CanSmall"":0,""CanBig"":0,""Seaweed"":0}",,,1,941.2,1,2,2,2,2,2,2,2,2,2,2,2,2,2,100,,0.838709677,,,,,,,,,,,,
6487966,10,127,Male,1,12-Oct,3,1,trial_11,,,0,,3925,,1158,"{""FishSmall"":0,""FishBig"":0,""CanSmall"":4,""CanBig"":1,""Seaweed"":1}","{""FishSmall"":4,""FishBig"":0,""CanSmall"":1,""CanBig"":0,""Seaweed"":1}",50,100,-10,5,-3.333333333,0,5.773502692,7.637626158,1,1,15,1.864123466,0,50,"{""FishSmall"":1,""FishBig"":0,""CanSmall"":2,""CanBig"":0,""Seaweed"":0}","{""FishSmall"":2,""FishBig"":0,""CanSmall"":0,""CanBig"":1,""Seaweed"":0}",-10,0,1,941.2,1,2,2,2,2,2,2,2,2,2,2,2,2,2,100,11,0.838709677,-10,10,0,0,2.333333333,2,0,-10,1,0,10,-10
6487966,10,127,Male,1,12-Oct,3,0,trial_12,,1,0,,799,1208,4590,"{""FishSmall"":1,""FishBig"":0,""CanSmall"":3,""CanBig"":1,""Seaweed"":1}","{""FishSmall"":2,""FishBig"":0,""CanSmall"":3,""CanBig"":0,""Seaweed"":1}",100,50,-6.666666667,-1.666666667,-13.33333333,6.666666667,9.428090416,8.975274679,1,1,5,-0.452815737,0,-50,"{""FishSmall"":0,""FishBig"":0,""CanSmall"":2,""CanBig"":1,""Seaweed"":0}","{""FishSmall"":1,""FishBig"":1,""CanSmall"":1,""CanBig"":0,""Seaweed"":0}",-13.33333333,-1.666666667,1,941.2,1,2,2,2,2,2,2,2,2,2,2,2,2,2,100,12,0.838709677,0,-10,0,0,2.333333333,2,-13.33333333,-1.666666667,1,0,0,-10
6487966,10,127,Male,1,12-Oct,3,1,trial_13,,,,,1974,,,"{""FishSmall"":2,""FishBig"":0,""CanSmall"":1,""CanBig"":0,""Seaweed"":3}","{""FishSmall"":1,""FishBig"":0,""CanSmall"":2,""CanBig"":0,""Seaweed"":3}",0,50,1.666666667,-1.666666667,3.333333333,-6.666666667,6.871842709,6.871842709,3,3,-3.333333333,0,0,50,"{""FishSmall"":2,""FishBig"":0,""CanSmall"":1,""CanBig"":0,""Seaweed"":0}","{""FishSmall"":1,""FishBig"":0,""CanSmall"":1,""CanBig"":1,""Seaweed"":0}",1.666666667,-6.666666667,1,941.2,1,2,2,2,2,2,2,2,2,2,2,2,2,2,100,13,0.838709677,-10,-10,10,10,2.333333333,2,-6.666666667,1.666666667,3,0,-10,-10
6487966,10,127,Male,1,12-Oct,3,1,trial_14,,0,1,,3143,1382,985,"{""FishSmall"":1,""FishBig"":0,""CanSmall"":1,""CanBig"":1,""Seaweed"":3}","{""FishSmall"":0,""FishBig"":0,""CanSmall"":1,""CanBig"":3,""Seaweed"":2}",100,100,-3.333333333,-11.66666667,-3.333333333,-16.66666667,9.428090416,8.975274679,3,2,-8.333333333,-0.452815737,-1,0,"{""FishSmall"":1,""FishBig"":0,""CanSmall"":2,""CanBig"":0,""Seaweed"":0}","{""FishSmall"":0,""FishBig"":0,""CanSmall"":1,""CanBig"":2,""Seaweed"":0}",-3.333333333,-16.66666667,1,941.2,1,2,2,2,2,2,2,2,2,2,2,2,2,2,100,14,0.838709677,10,0,0,0,2.333333333,2,-16.66666667,-3.333333333,2,0,0,10
6487966,10,127,Male,1,12-Oct,3,0,trial_15,,1,,,1098,1411,,"{""FishSmall"":0,""FishBig"":0,""CanSmall"":2,""CanBig"":3,""Seaweed"":1}","{""FishSmall"":4,""FishBig"":0,""CanSmall"":0,""CanBig"":0,""Seaweed"":2}",100,50,-13.33333333,6.666666667,-16.66666667,10,7.453559925,4.714045208,1,2,20,-2.739514717,1,-50,"{""FishSmall"":0,""FishBig"":0,""CanSmall"":1,""CanBig"":2,""Seaweed"":0}","{""FishSmall"":3,""FishBig"":0,""CanSmall"":0,""CanBig"":0,""Seaweed"":0}",-16.66666667,6.666666667,1,941.2,1,2,2,2,2,2,2,2,2,2,2,2,2,2,100,15,0.838709677,0,10,0,0,2.333333333,2,-16.66666667,6.666666667,1,0,0,10
6487966,10,127,Male,1,12-Oct,3,1,trial_16,,1,,,3686,1953,,"{""FishSmall"":0,""FishBig"":0,""CanSmall"":2,""CanBig"":4,""Seaweed"":0}","{""FishSmall"":3,""FishBig"":0,""CanSmall"":2,""CanBig"":0,""Seaweed"":1}",50,50,-16.66666667,1.666666667,-16.66666667,-3.333333333,4.714045208,8.975274679,0,1,18.33333333,4.261229471,1,0,"{""FishSmall"":0,""FishBig"":0,""CanSmall"":1,""CanBig"":2,""Seaweed"":0}","{""FishSmall"":1,""FishBig"":0,""CanSmall"":2,""CanBig"":0,""Seaweed"":0}",-16.66666667,-3.333333333,1,941.2,1,2,2,2,2,2,2,2,2,2,2,2,2,2,100,16,0.838709677,0,0,0,-10,2.333333333,2,-3.333333333,-16.66666667,1,0,0,0
6487966,10,127,Male,1,12-Oct,3,0,trial_17,,1,1,,4577,1691,2254,"{""FishSmall"":2,""FishBig"":1,""CanSmall"":0,""CanBig"":0,""Seaweed"":3}","{""FishSmall"":0,""FishBig"":0,""CanSmall"":2,""CanBig"":4,""Seaweed"":0}",100,100,6.666666667,-16.66666667,-6.666666667,-16.66666667,7.453559925,4.714045208,3,0,-23.33333333,-2.739514717,-3,0,"{""FishSmall"":0,""FishBig"":1,""CanSmall"":0,""CanBig"":2,""Seaweed"":0}","{""FishSmall"":0,""FishBig"":0,""CanSmall"":1,""CanBig"":2,""Seaweed"":0}",-6.666666667,-16.66666667,1,941.2,1,2,2,2,2,2,2,2,2,2,2,2,2,2,100,17,0.838709677,0,0,0,0,2.333333333,2,-6.666666667,-16.66666667,3,0,0,0
6487966,10,127,Male,1,12-Oct,3,1,trial_18,,,1,,1158,,1073,"{""FishSmall"":0,""FishBig"":0,""CanSmall"":3,""CanBig"":2,""Seaweed"":1}","{""FishSmall"":0,""FishBig"":0,""CanSmall"":2,""CanBig"":1,""Seaweed"":3}",50,100,-11.66666667,-6.666666667,-13.33333333,-16.66666667,6.871842709,7.453559925,1,3,5,0.581717216,2,50,"{""FishSmall"":0,""FishBig"":0,""CanSmall"":2,""CanBig"":1,""Seaweed"":0}","{""FishSmall"":0,""FishBig"":0,""CanSmall"":1,""CanBig"":2,""Seaweed"":0}",-11.66666667,-16.66666667,1,941.2,1,2,2,2,2,2,2,2,2,2,2,2,2,2,100,18,0.838709677,-10,0,0,0,2.333333333,2,-16.66666667,-11.66666667,3,0,0,-10
6487966,10,127,Male,1,12-Oct,3,1,trial_19,,,0,,2504,,1594,"{""FishSmall"":2,""FishBig"":3,""CanSmall"":0,""CanBig"":0,""Seaweed"":1}","{""FishSmall"":2,""FishBig"":1,""CanSmall"":1,""CanBig"":0,""Seaweed"":2}",0,50,13.33333333,5,13.33333333,3.333333333,7.453559925,9.574271078,1,2,-8.333333333,2.120711153,1,50,"{""FishSmall"":2,""FishBig"":1,""CanSmall"":0,""CanBig"":0,""Seaweed"":0}","{""FishSmall"":2,""FishBig"":0,""CanSmall"":1,""CanBig"":0,""Seaweed"":0}",13.33333333,3.333333333,1,941.2,1,2,2,2,2,2,2,2,2,2,2,2,2,2,100,19,0.838709677,0,-10,0,10,2.333333333,2,3.333333333,13.33333333,2,0,-10,0
6487966,10,127,Male,1,12-Oct,3,1,trial_20,,0,,,2020,1719,,"{""FishSmall"":3,""FishBig"":0,""CanSmall"":2,""CanBig"":0,""Seaweed"":1}","{""FishSmall"":4,""FishBig"":0,""CanSmall"":0,""CanBig"":0,""Seaweed"":2}",100,50,1.666666667,6.666666667,0,13.33333333,8.975274679,4.714045208,1,2,5,-4.261229471,1,-50,"{""FishSmall"":2,""FishBig"":0,""CanSmall"":0,""CanBig"":1,""Seaweed"":0}","{""FishSmall"":2,""FishBig"":1,""CanSmall"":0,""CanBig"":0,""Seaweed"":0}",1.666666667,13.33333333,1,941.2,1,2,2,2,2,2,2,2,2,2,2,2,2,2,100,20,0.838709677,10,0,10,0,2.333333333,2,13.33333333,1.666666667,2,0,0,10
6487966,10,127,Male,1,12-Oct,3,,catch_2,1,,,1965,,,,"{""FishSmall"":0,""FishBig"":0,""CanSmall"":3,""CanBig"":3,""Seaweed"":0}","{""FishSmall"":0,""FishBig"":0,""CanSmall"":3,""CanBig"":3,""Seaweed"":0}",0,0,,,,,,,,,,,,,"{""FishSmall"":0,""FishBig"":0,""CanSmall"":3,""CanBig"":0,""Seaweed"":0}","{""FishSmall"":0,""FishBig"":0,""CanSmall"":2,""CanBig"":1,""Seaweed"":0}",,,1,941.2,1,2,2,2,2,2,2,2,2,2,2,2,2,2,100,,0.838709677,,,,,,,,,,,,
6487966,10,127,Male,1,12-Oct,3,0,trial_21,,,,,3882,,,"{""FishSmall"":4,""FishBig"":1,""CanSmall"":1,""CanBig"":0,""Seaweed"":0}","{""FishSmall"":1,""FishBig"":1,""CanSmall"":1,""CanBig"":0,""Seaweed"":3}",50,0,8.333333333,3.333333333,3.333333333,0,8.975274679,9.428090416,0,3,-5,0.452815737,3,-50,"{""FishSmall"":2,""FishBig"":0,""CanSmall"":1,""CanBig"":0,""Seaweed"":0}","{""FishSmall"":0,""FishBig"":1,""CanSmall"":2,""CanBig"":0,""Seaweed"":0}",3.333333333,3.333333333,1,941.2,1,2,2,2,2,2,2,2,2,2,2,2,2,2,100,21,0.838709677,0,0,10,0,2.333333333,2,3.333333333,3.333333333,0,0,0,0
6487966,10,127,Male,1,12-Oct,3,0,trial_22,,,,,894,,,"{""FishSmall"":3,""FishBig"":1,""CanSmall"":1,""CanBig"":0,""Seaweed"":1}","{""FishSmall"":3,""FishBig"":1,""CanSmall"":0,""CanBig"":0,""Seaweed"":2}",50,0,6.666666667,8.333333333,13.33333333,16.66666667,9.428090416,6.871842709,1,2,1.666666667,-2.556247706,1,-50,"{""FishSmall"":2,""FishBig"":1,""CanSmall"":0,""CanBig"":0,""Seaweed"":0}","{""FishSmall"":1,""FishBig"":2,""CanSmall"":0,""CanBig"":0,""Seaweed"":0}",13.33333333,8.333333333,1,941.2,1,2,2,2,2,2,2,2,2,2,2,2,2,2,100,22,0.838709677,10,20,0,0,2.333333333,2,13.33333333,8.333333333,1,0,10,20
6487966,10,127,Male,1,12-Oct,3,0,trial_23,,,,,2532,,,"{""FishSmall"":4,""FishBig"":1,""CanSmall"":0,""CanBig"":0,""Seaweed"":1}","{""FishSmall"":4,""FishBig"":1,""CanSmall"":1,""CanBig"":0,""Seaweed"":0}",50,0,10,8.333333333,10,6.666666667,5.773502692,8.975274679,1,0,-1.666666667,3.201771987,-1,-50,"{""FishSmall"":3,""FishBig"":0,""CanSmall"":0,""CanBig"":0,""Seaweed"":0}","{""FishSmall"":1,""FishBig"":1,""CanSmall"":1,""CanBig"":0,""Seaweed"":0}",10,8.333333333,1,941.2,1,2,2,2,2,2,2,2,2,2,2,2,2,2,100,23,0.838709677,0,20,10,20,2.333333333,2,10,8.333333333,1,0,0,20
6487966,10,127,Male,1,12-Oct,3,1,trial_24,,,,,4553,,,"{""FishSmall"":2,""FishBig"":1,""CanSmall"":1,""CanBig"":0,""Seaweed"":2}","{""FishSmall"":2,""FishBig"":2,""CanSmall"":0,""CanBig"":0,""Seaweed"":2}",0,0,5,10,6.666666667,3.333333333,9.574271078,8.164965809,2,2,5,-1.409305268,0,0,"{""FishSmall"":1,""FishBig"":1,""CanSmall"":1,""CanBig"":0,""Seaweed"":0}","{""FishSmall"":1,""FishBig"":1,""CanSmall"":0,""CanBig"":1,""Seaweed"":0}",5,3.333333333,1,941.2,1,2,2,2,2,2,2,2,2,2,2,2,2,2,100,24,0.838709677,0,0,-10,10,2.333333333,2,3.333333333,5,2,0,0,0
6487966,10,127,Male,1,12-Oct,3,1,trial_25,,,,,1363,,,"{""FishSmall"":4,""FishBig"":1,""CanSmall"":1,""CanBig"":0,""Seaweed"":0}","{""FishSmall"":1,""FishBig"":0,""CanSmall"":2,""CanBig"":1,""Seaweed"":2}",0,0,8.333333333,-5,6.666666667,-3.333333333,8.975274679,9.574271078,0,2,-13.33333333,0.598996399,2,0,"{""FishSmall"":1,""FishBig"":1,""CanSmall"":1,""CanBig"":0,""Seaweed"":0}","{""FishSmall"":1,""FishBig"":0,""CanSmall"":2,""CanBig"":0,""Seaweed"":0}",8.333333333,-3.333333333,1,941.2,1,2,2,2,2,2,2,2,2,2,2,2,2,2,100,25,0.838709677,20,0,20,0,2.333333333,2,-3.333333333,8.333333333,2,0,0,20
6487966,10,127,Male,1,12-Oct,3,1,trial_26,,0,,,713,4122,,"{""FishSmall"":2,""FishBig"":0,""CanSmall"":2,""CanBig"":0,""Seaweed"":2}","{""FishSmall"":3,""FishBig"":0,""CanSmall"":1,""CanBig"":0,""Seaweed"":2}",50,50,0,3.333333333,-6.666666667,3.333333333,8.164965809,7.453559925,2,2,3.333333333,-0.711405884,0,0,"{""FishSmall"":1,""FishBig"":0,""CanSmall"":1,""CanBig"":1,""Seaweed"":0}","{""FishSmall"":2,""FishBig"":0,""CanSmall"":1,""CanBig"":0,""Seaweed"":0}",0,3.333333333,1,941.2,1,2,2,2,2,2,2,2,2,2,2,2,2,2,100,26,0.838709677,10,10,0,10,2.333333333,2,3.333333333,0,2,0,10,10
6487966,10,127,Male,1,12-Oct,3,0,trial_27,,0,1,,1798,1652,2907,"{""FishSmall"":4,""FishBig"":1,""CanSmall"":1,""CanBig"":0,""Seaweed"":0}","{""FishSmall"":1,""FishBig"":0,""CanSmall"":4,""CanBig"":1,""Seaweed"":0}",100,50,8.333333333,-8.333333333,10,-10,8.975274679,8.975274679,0,0,-16.66666667,0,0,-50,"{""FishSmall"":3,""FishBig"":0,""CanSmall"":0,""CanBig"":0,""Seaweed"":0}","{""FishSmall"":0,""FishBig"":0,""CanSmall"":3,""CanBig"":0,""Seaweed"":0}",10,-8.333333333,1,941.2,1,2,2,2,2,2,2,2,2,2,2,2,2,2,100,27,0.838709677,10,0,10,0,2.333333333,2,10,-8.333333333,0,0,10,0
6487966,10,127,Male,1,12-Oct,3,1,trial_28,,,1,,1672,,1332,"{""FishSmall"":0,""FishBig"":0,""CanSmall"":3,""CanBig"":0,""Seaweed"":3}","{""FishSmall"":1,""FishBig"":0,""CanSmall"":4,""CanBig"":0,""Seaweed"":1}",0,100,-5,-5,-13.33333333,-10,5,7.637626158,3,1,0,2.637626158,-2,100,"{""FishSmall"":0,""FishBig"":0,""CanSmall"":2,""CanBig"":1,""Seaweed"":0}","{""FishSmall"":0,""FishBig"":0,""CanSmall"":3,""CanBig"":0,""Seaweed"":0}",-5,-10,1,941.2,1,2,2,2,2,2,2,2,2,2,2,2,2,2,100,28,0.838709677,0,0,0,0,2.333333333,2,-10,-5,1,0,0,0
6487966,10,127,Male,1,12-Oct,3,1,trial_29,,,0,,811,,2272,"{""FishSmall"":2,""FishBig"":1,""CanSmall"":1,""CanBig"":0,""Seaweed"":2}","{""FishSmall"":0,""FishBig"":0,""CanSmall"":4,""CanBig"":1,""Seaweed"":1}",0,100,5,-10,0,0,9.574271078,5.773502692,2,1,-15,-3.800768386,-1,100,"{""FishSmall"":2,""FishBig"":0,""CanSmall"":0,""CanBig"":1,""Seaweed"":0}","{""FishSmall"":0,""FishBig"":1,""CanSmall"":2,""CanBig"":0,""Seaweed"":0}",5,0,1,941.2,1,2,2,2,2,2,2,2,2,2,2,2,2,2,100,29,0.838709677,0,-10,10,0,2.333333333,2,0,5,1,0,-10,0
6487966,10,127,Male,1,12-Oct,3,0,trial_30,,0,,,3208,1034,,"{""FishSmall"":2,""FishBig"":1,""CanSmall"":0,""CanBig"":0,""Seaweed"":3}","{""FishSmall"":1,""FishBig"":1,""CanSmall"":1,""CanBig"":0,""Seaweed"":3}",50,50,6.666666667,3.333333333,6.666666667,3.333333333,7.453559925,9.428090416,3,3,-3.333333333,1.974530491,0,0,"{""FishSmall"":1,""FishBig"":1,""CanSmall"":1,""CanBig"":0,""Seaweed"":0}","{""FishSmall"":2,""FishBig"":0,""CanSmall"":1,""CanBig"":0,""Seaweed"":0}",6.666666667,3.333333333,1,941.2,1,2,2,2,2,2,2,2,2,2,2,2,2,2,100,30,0.838709677,20,0,20,10,2.333333333,2,6.666666667,3.333333333,3,0,20,0
6491208,11,134,Male,1,12-Oct,3,0,trial_1,,0,,,4214.1,7208.8,,"{""FishSmall"":3,""FishBig"":2,""CanSmall"":0,""CanBig"":0,""Seaweed"":1}","{""FishSmall"":1,""FishBig"":0,""CanSmall"":3,""CanBig"":1,""Seaweed"":1}",50,0,11.66666667,-6.666666667,16.66666667,-3.333333333,6.871842709,9.428090416,1,1,-18.33333333,2.556247706,0,-50,"{""FishSmall"":1,""FishBig"":2,""CanSmall"":0,""CanBig"":0,""Seaweed"":0}","{""FishSmall"":1,""FishBig"":0,""CanSmall"":2,""CanBig"":0,""Seaweed"":0}",16.66666667,-6.666666667,0.8,940.5,0.961538462,2,2,2,2,2,2,2,2,2,2,1,2,2,100,1,0.722222222,20,-10,20,-10,-0.833333333,3,16.66666667,-6.666666667,1,0,20,-10
6491208,11,134,Male,1,12-Oct,3,1,trial_2,,1,0,,5167.4,3484.2,3853.2,"{""FishSmall"":0,""FishBig"":0,""CanSmall"":1,""CanBig"":2,""Seaweed"":3}","{""FishSmall"":1,""FishBig"":1,""CanSmall"":1,""CanBig"":0,""Seaweed"":3}",100,50,-8.333333333,3.333333333,-20,0,8.975274679,9.428090416,3,3,11.66666667,0.452815737,0,-50,"{""FishSmall"":0,""FishBig"":0,""CanSmall"":0,""CanBig"":3,""Seaweed"":0}","{""FishSmall"":2,""FishBig"":0,""CanSmall"":0,""CanBig"":1,""Seaweed"":0}",-8.333333333,0,0.8,940.5,0.961538462,2,2,2,2,2,2,2,2,2,2,1,2,2,100,2,0.722222222,0,-20,0,0,-0.833333333,3,0,-8.333333333,3,0,-20,0
6491208,11,134,Male,1,12-Oct,3,0,trial_3,,0,,,4574.3,2188.9,,"{""FishSmall"":2,""FishBig"":0,""CanSmall"":1,""CanBig"":0,""Seaweed"":3}","{""FishSmall"":2,""FishBig"":0,""CanSmall"":1,""CanBig"":0,""Seaweed"":3}",100,0,1.666666667,1.666666667,0,-6.666666667,6.871842709,6.871842709,3,3,0,0,0,-100,"{""FishSmall"":2,""FishBig"":0,""CanSmall"":0,""CanBig"":1,""Seaweed"":0}","{""FishSmall"":1,""FishBig"":0,""CanSmall"":1,""CanBig"":1,""Seaweed"":0}",0,1.666666667,0.8,940.5,0.961538462,2,2,2,2,2,2,2,2,2,2,1,2,2,100,3,0.722222222,-20,-10,0,0,-0.833333333,3,0,1.666666667,3,0,-20,-10
6491208,11,134,Male,1,12-Oct,3,1,trial_4,,1,0,,3041.6,3585.3,984.7,"{""FishSmall"":0,""FishBig"":0,""CanSmall"":4,""CanBig"":1,""Seaweed"":1}","{""FishSmall"":3,""FishBig"":2,""CanSmall"":0,""CanBig"":0,""Seaweed"":1}",50,100,-10,11.66666667,-6.666666667,16.66666667,5.773502692,6.871842709,1,1,21.66666667,1.098340017,0,50,"{""FishSmall"":1,""FishBig"":0,""CanSmall"":1,""CanBig"":1,""Seaweed"":0}","{""FishSmall"":1,""FishBig"":2,""CanSmall"":0,""CanBig"":0,""Seaweed"":0}",-10,16.66666667,0.8,940.5,0.961538462,2,2,2,2,2,2,2,2,2,2,1,2,2,100,4,0.722222222,0,10,0,10,-0.833333333,3,16.66666667,-10,1,0,10,0
6491208,11,134,Male,1,12-Oct,3,0,trial_5,,,,,3502.8,,,"{""FishSmall"":0,""FishBig"":0,""CanSmall"":1,""CanBig"":3,""Seaweed"":2}","{""FishSmall"":1,""FishBig"":3,""CanSmall"":0,""CanBig"":0,""Seaweed"":2}",0,50,-11.66666667,11.66666667,-20,13.33333333,8.975274679,8.975274679,2,2,23.33333333,0,0,50,"{""FishSmall"":0,""FishBig"":0,""CanSmall"":0,""CanBig"":3,""Seaweed"":0}","{""FishSmall"":2,""FishBig"":1,""CanSmall"":0,""CanBig"":0,""Seaweed"":0}",-20,11.66666667,0.8,940.5,0.961538462,2,2,2,2,2,2,2,2,2,2,1,2,2,100,5,0.722222222,-20,0,-20,10,-0.833333333,3,-20,11.66666667,2,0,-20,0
6491208,11,134,Male,1,12-Oct,3,1,trial_6,,0,,,1379.7,4135.5,1562.4,"{""FishSmall"":1,""FishBig"":0,""CanSmall"":1,""CanBig"":1,""Seaweed"":3}","{""FishSmall"":0,""FishBig"":0,""CanSmall"":1,""CanBig"":4,""Seaweed"":1}",100,0,-3.333333333,-15,10,-16.66666667,9.428090416,7.637626158,3,1,-11.66666667,-1.790464258,-2,-100,"{""FishSmall"":0,""FishBig"":2,""CanSmall"":1,""CanBig"":0,""Seaweed"":0}","{""FishSmall"":0,""FishBig"":0,""CanSmall"":1,""CanBig"":2,""Seaweed"":0}",-3.333333333,-16.66666667,0.8,940.5,0.961538462,2,2,2,2,2,2,2,2,2,2,1,2,2,100,6,0.722222222,-10,-20,0,-10,-0.833333333,3,-16.66666667,-3.333333333,1,0,-20,-10
6491208,11,134,Male,1,12-Oct,3,1,trial_7,,0,1,,5593.7,3796.5,1301.6,"{""FishSmall"":0,""FishBig"":0,""CanSmall"":2,""CanBig"":3,""Seaweed"":1}","{""FishSmall"":1,""FishBig"":1,""CanSmall"":1,""CanBig"":0,""Seaweed"":3}",100,50,-13.33333333,3.333333333,-13.33333333,-3.333333333,7.453559925,9.428090416,1,3,16.66666667,1.974530491,2,-50,"{""FishSmall"":0,""FishBig"":0,""CanSmall"":2,""CanBig"":1,""Seaweed"":0}","{""FishSmall"":1,""FishBig"":0,""CanSmall"":2,""CanBig"":0,""Seaweed"":0}",-13.33333333,-3.333333333,0.8,940.5,0.961538462,2,2,2,2,2,2,2,2,2,2,1,2,2,100,7,0.722222222,-20,0,0,0,-0.833333333,3,-3.333333333,-13.33333333,3,0,0,-20
6491208,11,134,Male,1,12-Oct,3,0,trial_8,,0,,,4322.1,6452.1,,"{""FishSmall"":1,""FishBig"":0,""CanSmall"":1,""CanBig"":1,""Seaweed"":3}","{""FishSmall"":2,""FishBig"":0,""CanSmall"":1,""CanBig"":0,""Seaweed"":3}",50,0,-3.333333333,1.666666667,6.666666667,-6.666666667,9.428090416,6.871842709,3,3,5,-2.556247706,0,-50,"{""FishSmall"":1,""FishBig"":1,""CanSmall"":1,""CanBig"":0,""Seaweed"":0}","{""FishSmall"":1,""FishBig"":0,""CanSmall"":1,""CanBig"":1,""Seaweed"":0}",6.666666667,1.666666667,0.8,940.5,0.961538462,2,2,2,2,2,2,2,2,2,2,1,2,2,100,8,0.722222222,20,-10,20,0,-0.833333333,3,6.666666667,1.666666667,3,0,20,-10
6491208,11,134,Male,1,12-Oct,3,1,trial_9,,1,1,,4851.1,4159.5,1514.8,"{""FishSmall"":0,""FishBig"":0,""CanSmall"":2,""CanBig"":3,""Seaweed"":1}","{""FishSmall"":2,""FishBig"":1,""CanSmall"":1,""CanBig"":0,""Seaweed"":2}",100,50,-13.33333333,5,-16.66666667,16.66666667,7.453559925,9.574271078,1,2,18.33333333,2.120711153,1,-50,"{""FishSmall"":0,""FishBig"":0,""CanSmall"":1,""CanBig"":2,""Seaweed"":0}","{""FishSmall"":1,""FishBig"":2,""CanSmall"":0,""CanBig"":0,""Seaweed"":0}",-13.33333333,16.66666667,0.8,940.5,0.961538462,2,2,2,2,2,2,2,2,2,2,1,2,2,100,9,0.722222222,0,0,0,20,-0.833333333,3,16.66666667,-13.33333333,2,0,0,0
6491208,11,134,Male,1,12-Oct,3,1,trial_10,,0,,,4759.8,3548.1,,"{""FishSmall"":3,""FishBig"":2,""CanSmall"":0,""CanBig"":0,""Seaweed"":1}","{""FishSmall"":1,""FishBig"":1,""CanSmall"":1,""CanBig"":0,""Seaweed"":3}",100,50,11.66666667,3.333333333,16.66666667,6.666666667,6.871842709,9.428090416,1,3,-8.333333333,2.556247706,2,-50,"{""FishSmall"":1,""FishBig"":2,""CanSmall"":0,""CanBig"":0,""Seaweed"":0}","{""FishSmall"":1,""FishBig"":1,""CanSmall"":1,""CanBig"":0,""Seaweed"":0}",11.66666667,6.666666667,0.8,940.5,0.961538462,2,2,2,2,2,2,2,2,2,2,1,2,2,100,10,0.722222222,10,0,20,0,-0.833333333,3,6.666666667,11.66666667,3,0,0,10
6491208,11,134,Male,1,12-Oct,3,,catch_1,0,,,3238,,,,"{""FishSmall"":4,""FishBig"":2,""CanSmall"":0,""CanBig"":0,""Seaweed"":0}","{""FishSmall"":4,""FishBig"":2,""CanSmall"":0,""CanBig"":0,""Seaweed"":0}",0,0,,,,,,,,,,,,,"{""FishSmall"":2,""FishBig"":1,""CanSmall"":0,""CanBig"":0,""Seaweed"":0}","{""FishSmall"":2,""FishBig"":1,""CanSmall"":0,""CanBig"":0,""Seaweed"":0}",,,0.8,940.5,0.961538462,2,2,2,2,2,2,2,2,2,2,1,2,2,100,,0.722222222,,,,,,,,,,,,
6491208,11,134,Male,1,12-Oct,3,0,trial_11,,,0,,1389.3,,1615,"{""FishSmall"":0,""FishBig"":0,""CanSmall"":1,""CanBig"":2,""Seaweed"":3}","{""FishSmall"":1,""FishBig"":0,""CanSmall"":5,""CanBig"":0,""Seaweed"":0}",0,100,-8.333333333,-6.666666667,-6.666666667,-3.333333333,8.975274679,7.453559925,3,0,1.666666667,-1.521714754,-3,100,"{""FishSmall"":1,""FishBig"":0,""CanSmall"":1,""CanBig"":1,""Seaweed"":0}","{""FishSmall"":1,""FishBig"":0,""CanSmall"":2,""CanBig"":0,""Seaweed"":0}",-6.666666667,-6.666666667,0.8,940.5,0.961538462,2,2,2,2,2,2,2,2,2,2,1,2,2,100,11,0.722222222,0,10,0,0,-0.833333333,3,-6.666666667,-6.666666667,3,0,0,10
6491208,11,134,Male,1,12-Oct,3,0,trial_12,,,0,,2171.9,,2232.3,"{""FishSmall"":2,""FishBig"":0,""CanSmall"":2,""CanBig"":0,""Seaweed"":2}","{""FishSmall"":3,""FishBig"":1,""CanSmall"":1,""CanBig"":0,""Seaweed"":1}",0,100,0,6.666666667,-6.666666667,6.666666667,8.164965809,9.428090416,2,1,6.666666667,1.263124607,-1,100,"{""FishSmall"":1,""FishBig"":0,""CanSmall"":1,""CanBig"":1,""Seaweed"":0}","{""FishSmall"":1,""FishBig"":1,""CanSmall"":1,""CanBig"":0,""Seaweed"":0}",-6.666666667,6.666666667,0.8,940.5,0.961538462,2,2,2,2,2,2,2,2,2,2,1,2,2,100,12,0.722222222,0,20,0,10,-0.833333333,3,-6.666666667,6.666666667,2,0,0,20
6491208,11,134,Male,1,12-Oct,3,0,trial_13,,0,,,5334.4,9297.4,,"{""FishSmall"":2,""FishBig"":1,""CanSmall"":0,""CanBig"":0,""Seaweed"":3}","{""FishSmall"":0,""FishBig"":0,""CanSmall"":1,""CanBig"":3,""Seaweed"":2}",100,50,6.666666667,-11.66666667,6.666666667,-16.66666667,7.453559925,8.975274679,3,2,-18.33333333,1.521714754,-1,-50,"{""FishSmall"":1,""FishBig"":1,""CanSmall"":1,""CanBig"":0,""Seaweed"":0}","{""FishSmall"":0,""FishBig"":0,""CanSmall"":1,""CanBig"":2,""Seaweed"":0}",6.666666667,-11.66666667,0.8,940.5,0.961538462,2,2,2,2,2,2,2,2,2,2,1,2,2,100,13,0.722222222,10,0,20,0,-0.833333333,3,6.666666667,-11.66666667,3,0,10,0
6491208,11,134,Male,1,12-Oct,3,0,trial_14,,,,,2072.6,,,"{""FishSmall"":0,""FishBig"":0,""CanSmall"":2,""CanBig"":2,""Seaweed"":2}","{""FishSmall"":2,""FishBig"":1,""CanSmall"":0,""CanBig"":0,""Seaweed"":3}",0,0,-10,6.666666667,-13.33333333,20,8.164965809,7.453559925,2,3,16.66666667,-0.711405884,1,0,"{""FishSmall"":0,""FishBig"":0,""CanSmall"":2,""CanBig"":1,""Seaweed"":0}","{""FishSmall"":0,""FishBig"":3,""CanSmall"":0,""CanBig"":0,""Seaweed"":0}",-13.33333333,6.666666667,0.8,940.5,0.961538462,2,2,2,2,2,2,2,2,2,2,1,2,2,100,14,0.722222222,-10,20,-20,20,-0.833333333,3,-13.33333333,6.666666667,2,0,-10,20
6491208,11,134,Male,1,12-Oct,3,0,trial_15,,1,0,,5841.7,1065.1,4573.9,"{""FishSmall"":2,""FishBig"":1,""CanSmall"":1,""CanBig"":0,""Seaweed"":2}","{""FishSmall"":0,""FishBig"":0,""CanSmall"":2,""CanBig"":3,""Seaweed"":1}",100,100,5,-13.33333333,3.333333333,-6.666666667,9.574271078,7.453559925,2,1,-18.33333333,-2.120711153,-1,0,"{""FishSmall"":2,""FishBig"":0,""CanSmall"":1,""CanBig"":0,""Seaweed"":0}","{""FishSmall"":1,""FishBig"":0,""CanSmall"":1,""CanBig"":1,""Seaweed"":0}",3.333333333,-13.33333333,0.8,940.5,0.961538462,2,2,2,2,2,2,2,2,2,2,1,2,2,100,15,0.722222222,0,-10,10,0,-0.833333333,3,3.333333333,-13.33333333,2,0,0,-10
6491208,11,134,Male,1,12-Oct,3,1,trial_16,,1,0,,4383.1,874,1894.9,"{""FishSmall"":0,""FishBig"":0,""CanSmall"":1,""CanBig"":4,""Seaweed"":1}","{""FishSmall"":2,""FishBig"":1,""CanSmall"":0,""CanBig"":0,""Seaweed"":3}",100,100,-15,6.666666667,-20,-6.666666667,7.637626158,7.453559925,1,3,21.66666667,-0.184066233,2,0,"{""FishSmall"":0,""FishBig"":0,""CanSmall"":0,""CanBig"":3,""Seaweed"":0}","{""FishSmall"":1,""FishBig"":0,""CanSmall"":1,""CanBig"":1,""Seaweed"":0}",-15,-6.666666667,0.8,940.5,0.961538462,2,2,2,2,2,2,2,2,2,2,1,2,2,100,16,0.722222222,0,-10,0,0,-0.833333333,3,-6.666666667,-15,3,0,-10,0
6491208,11,134,Male,1,12-Oct,3,0,trial_17,,0,0,,2780.9,2178.5,8397.5,"{""FishSmall"":2,""FishBig"":2,""CanSmall"":0,""CanBig"":0,""Seaweed"":2}","{""FishSmall"":0,""FishBig"":0,""CanSmall"":2,""CanBig"":3,""Seaweed"":1}",50,50,10,-13.33333333,3.333333333,-16.66666667,8.164965809,7.453559925,2,1,-23.33333333,-0.711405884,-1,0,"{""FishSmall"":2,""FishBig"":0,""CanSmall"":1,""CanBig"":0,""Seaweed"":0}","{""FishSmall"":0,""FishBig"":0,""CanSmall"":1,""CanBig"":2,""Seaweed"":0}",3.333333333,-13.33333333,0.8,940.5,0.961538462,2,2,2,2,2,2,2,2,2,2,1,2,2,100,17,0.722222222,-10,-10,-10,0,-0.833333333,3,3.333333333,-13.33333333,2,0,-10,-10
6491208,11,134,Male,1,12-Oct,3,1,trial_18,,,,,1093.1,,,"{""FishSmall"":3,""FishBig"":0,""CanSmall"":2,""CanBig"":0,""Seaweed"":1}","{""FishSmall"":1,""FishBig"":0,""CanSmall"":2,""CanBig"":1,""Seaweed"":2}",0,50,1.666666667,-5,3.333333333,-16.66666667,8.975274679,9.574271078,1,2,-6.666666667,0.598996399,1,50,"{""FishSmall"":2,""FishBig"":0,""CanSmall"":1,""CanBig"":0,""Seaweed"":0}","{""FishSmall"":0,""FishBig"":0,""CanSmall"":1,""CanBig"":2,""Seaweed"":0}",1.666666667,-16.66666667,0.8,940.5,0.961538462,2,2,2,2,2,2,2,2,2,2,1,2,2,100,18,0.722222222,0,-20,0,-10,-0.833333333,3,-16.66666667,1.666666667,2,0,-20,0
6491208,11,134,Male,1,12-Oct,3,0,trial_19,,0,0,,1340.9,2246.5,2031.5,"{""FishSmall"":3,""FishBig"":2,""CanSmall"":0,""CanBig"":0,""Seaweed"":1}","{""FishSmall"":2,""FishBig"":1,""CanSmall"":1,""CanBig"":0,""Seaweed"":2}",100,50,11.66666667,5,13.33333333,3.333333333,6.871842709,9.574271078,1,2,-6.666666667,2.702428368,1,-50,"{""FishSmall"":2,""FishBig"":1,""CanSmall"":0,""CanBig"":0,""Seaweed"":0}","{""FishSmall"":1,""FishBig"":1,""CanSmall"":0,""CanBig"":1,""Seaweed"":0}",13.33333333,5,0.8,940.5,0.961538462,2,2,2,2,2,2,2,2,2,2,1,2,2,100,19,0.722222222,10,20,20,10,-0.833333333,3,13.33333333,5,1,0,10,20
6491208,11,134,Male,1,12-Oct,3,1,trial_20,,1,0,,1591.2,1501.8,1762.1,"{""FishSmall"":0,""FishBig"":0,""CanSmall"":2,""CanBig"":3,""Seaweed"":1}","{""FishSmall"":1,""FishBig"":3,""CanSmall"":0,""CanBig"":0,""Seaweed"":2}",100,100,-13.33333333,11.66666667,-13.33333333,16.66666667,7.453559925,8.975274679,1,2,25,1.521714754,1,0,"{""FishSmall"":0,""FishBig"":0,""CanSmall"":2,""CanBig"":1,""Seaweed"":0}","{""FishSmall"":1,""FishBig"":2,""CanSmall"":0,""CanBig"":0,""Seaweed"":0}",-13.33333333,16.66666667,0.8,940.5,0.961538462,2,2,2,2,2,2,2,2,2,2,1,2,2,100,20,0.722222222,0,20,0,20,-0.833333333,3,16.66666667,-13.33333333,2,0,20,0
6491208,11,134,Male,1,12-Oct,3,,catch_2,1,,,1831.3,,,,"{""FishSmall"":0,""FishBig"":0,""CanSmall"":3,""CanBig"":3,""Seaweed"":0}","{""FishSmall"":0,""FishBig"":0,""CanSmall"":3,""CanBig"":3,""Seaweed"":0}",0,0,,,,,,,,,,,,,"{""FishSmall"":0,""FishBig"":0,""CanSmall"":2,""CanBig"":1,""Seaweed"":0}","{""FishSmall"":0,""FishBig"":0,""CanSmall"":1,""CanBig"":2,""Seaweed"":0}",,,0.8,940.5,0.961538462,2,2,2,2,2,2,2,2,2,2,1,2,2,100,,0.722222222,,,,,,,,,,,,
6491208,11,134,Male,1,12-Oct,3,0,trial_21,,1,,,1358.9,2461.2,,"{""FishSmall"":0,""FishBig"":0,""CanSmall"":2,""CanBig"":2,""Seaweed"":2}","{""FishSmall"":2,""FishBig"":2,""CanSmall"":0,""CanBig"":0,""Seaweed"":2}",50,0,-10,10,-3.333333333,6.666666667,8.164965809,8.164965809,2,2,20,0,0,-50,"{""FishSmall"":0,""FishBig"":1,""CanSmall"":1,""CanBig"":1,""Seaweed"":0}","{""FishSmall"":0,""FishBig"":2,""CanSmall"":0,""CanBig"":1,""Seaweed"":0}",-3.333333333,10,0.8,940.5,0.961538462,2,2,2,2,2,2,2,2,2,2,1,2,2,100,21,0.722222222,0,0,0,0,-0.833333333,3,-3.333333333,10,2,0,0,0
6491208,11,134,Male,1,12-Oct,3,0,trial_22,,1,,,1619.1,2471.9,,"{""FishSmall"":0,""FishBig"":0,""CanSmall"":3,""CanBig"":1,""Seaweed"":2}","{""FishSmall"":3,""FishBig"":2,""CanSmall"":0,""CanBig"":0,""Seaweed"":1}",100,0,-8.333333333,11.66666667,-16.66666667,6.666666667,6.871842709,6.871842709,2,1,20,0,-1,-100,"{""FishSmall"":0,""FishBig"":0,""CanSmall"":1,""CanBig"":2,""Seaweed"":0}","{""FishSmall"":1,""FishBig"":1,""CanSmall"":1,""CanBig"":0,""Seaweed"":0}",-16.66666667,11.66666667,0.8,940.5,0.961538462,2,2,2,2,2,2,2,2,2,2,1,2,2,100,22,0.722222222,0,10,0,0,-0.833333333,3,-16.66666667,11.66666667,2,0,0,10
6491208,11,134,Male,1,12-Oct,3,1,trial_23,,0,,,1736.4,2468.8,,"{""FishSmall"":1,""FishBig"":1,""CanSmall"":1,""CanBig"":0,""Seaweed"":3}","{""FishSmall"":1,""FishBig"":2,""CanSmall"":0,""CanBig"":0,""Seaweed"":3}",50,0,3.333333333,8.333333333,-3.333333333,-3.333333333,9.428090416,8.975274679,3,3,5,-0.452815737,0,-50,"{""FishSmall"":1,""FishBig"":0,""CanSmall"":2,""CanBig"":0,""Seaweed"":0}","{""FishSmall"":0,""FishBig"":1,""CanSmall"":1,""CanBig"":1,""Seaweed"":0}",3.333333333,-3.333333333,0.8,940.5,0.961538462,2,2,2,2,2,2,2,2,2,2,1,2,2,100,23,0.722222222,-10,0,10,20,-0.833333333,3,-3.333333333,3.333333333,3,0,0,-10
6491208,11,134,Male,1,12-Oct,3,0,trial_24,,0,,,10351.1,5146.9,2414.8,"{""FishSmall"":1,""FishBig"":0,""CanSmall"":1,""CanBig"":1,""Seaweed"":3}","{""FishSmall"":1,""FishBig"":0,""CanSmall"":2,""CanBig"":1,""Seaweed"":2}",50,0,-3.333333333,-5,-6.666666667,-3.333333333,9.428090416,9.574271078,3,2,-1.666666667,0.146180662,-1,-50,"{""FishSmall"":1,""FishBig"":0,""CanSmall"":1,""CanBig"":1,""Seaweed"":0}","{""FishSmall"":1,""FishBig"":0,""CanSmall"":2,""CanBig"":0,""Seaweed"":0}",-6.666666667,-5,0.8,940.5,0.961538462,2,2,2,2,2,2,2,2,2,2,1,2,2,100,24,0.722222222,10,0,0,0,-0.833333333,3,-6.666666667,-5,3,0,10,0
6491208,11,134,Male,1,12-Oct,3,0,trial_25,,,0,,732.9,1750.5,1412.5,"{""FishSmall"":3,""FishBig"":1,""CanSmall"":1,""CanBig"":0,""Seaweed"":1}","{""FishSmall"":3,""FishBig"":3,""CanSmall"":0,""CanBig"":0,""Seaweed"":0}",0,100,6.666666667,15,-6.666666667,13.33333333,9.428090416,5,1,0,8.333333333,-4.428090416,-1,100,"{""FishSmall"":1,""FishBig"":0,""CanSmall"":1,""CanBig"":1,""Seaweed"":0}","{""FishSmall"":2,""FishBig"":1,""CanSmall"":0,""CanBig"":0,""Seaweed"":0}",-6.666666667,15,0.8,940.5,0.961538462,2,2,2,2,2,2,2,2,2,2,1,2,2,100,25,0.722222222,-20,10,-10,10,-0.833333333,3,-6.666666667,15,1,0,-20,10
6491208,11,134,Male,1,12-Oct,3,0,trial_26,,0,,,1418.9,5429.6,,"{""FishSmall"":2,""FishBig"":2,""CanSmall"":0,""CanBig"":0,""Seaweed"":2}","{""FishSmall"":2,""FishBig"":0,""CanSmall"":2,""CanBig"":0,""Seaweed"":2}",100,0,10,0,3.333333333,6.666666667,8.164965809,8.164965809,2,2,-10,0,0,-100,"{""FishSmall"":1,""FishBig"":1,""CanSmall"":0,""CanBig"":1,""Seaweed"":0}","{""FishSmall"":1,""FishBig"":1,""CanSmall"":1,""CanBig"":0,""Seaweed"":0}",3.333333333,0,0.8,940.5,0.961538462,2,2,2,2,2,2,2,2,2,2,1,2,2,100,26,0.722222222,-20,0,-20,20,-0.833333333,3,3.333333333,0,2,0,-20,0
6491208,11,134,Male,1,12-Oct,3,1,trial_27,,,,,4670.6,,,"{""FishSmall"":1,""FishBig"":1,""CanSmall"":1,""CanBig"":0,""Seaweed"":3}","{""FishSmall"":0,""FishBig"":0,""CanSmall"":2,""CanBig"":2,""Seaweed"":2}",50,0,3.333333333,-10,10,-6.666666667,9.428090416,8.164965809,3,2,-13.33333333,-1.263124607,-1,-50,"{""FishSmall"":0,""FishBig"":2,""CanSmall"":1,""CanBig"":0,""Seaweed"":0}","{""FishSmall"":1,""FishBig"":0,""CanSmall"":1,""CanBig"":1,""Seaweed"":0}",3.333333333,-6.666666667,0.8,940.5,0.961538462,2,2,2,2,2,2,2,2,2,2,1,2,2,100,27,0.722222222,0,0,0,0,-0.833333333,3,-6.666666667,3.333333333,2,0,0,0
6491208,11,134,Male,1,12-Oct,3,0,trial_28,,0,,,957.3,1212.2,2438.9,"{""FishSmall"":1,""FishBig"":1,""CanSmall"":1,""CanBig"":0,""Seaweed"":3}","{""FishSmall"":2,""FishBig"":1,""CanSmall"":1,""CanBig"":0,""Seaweed"":2}",50,0,3.333333333,5,3.333333333,6.666666667,9.428090416,9.574271078,3,2,1.666666667,0.146180662,-1,-50,"{""FishSmall"":2,""FishBig"":0,""CanSmall"":1,""CanBig"":0,""Seaweed"":0}","{""FishSmall"":1,""FishBig"":1,""CanSmall"":1,""CanBig"":0,""Seaweed"":0}",3.333333333,5,0.8,940.5,0.961538462,2,2,2,2,2,2,2,2,2,2,1,2,2,100,28,0.722222222,10,0,10,10,-0.833333333,3,3.333333333,5,3,0,10,0
6491208,11,134,Male,1,12-Oct,3,0,trial_29,,0,,,3175.2,1176.2,,"{""FishSmall"":3,""FishBig"":0,""CanSmall"":0,""CanBig"":0,""Seaweed"":3}","{""FishSmall"":0,""FishBig"":0,""CanSmall"":4,""CanBig"":1,""Seaweed"":1}",50,0,5,-10,13.33333333,-10,5,5.773502692,3,1,-15,0.773502692,-2,-50,"{""FishSmall"":2,""FishBig"":1,""CanSmall"":0,""CanBig"":0,""Seaweed"":0}","{""FishSmall"":0,""FishBig"":0,""CanSmall"":3,""CanBig"":0,""Seaweed"":0}",13.33333333,-10,0.8,940.5,0.961538462,2,2,2,2,2,2,2,2,2,2,1,2,2,100,29,0.722222222,10,0,10,-10,-0.833333333,3,13.33333333,-10,3,0,10,0
6491208,11,134,Male,1,12-Oct,3,0,trial_30,,0,0,,1202.3,1220,2032.9,"{""FishSmall"":1,""FishBig"":0,""CanSmall"":2,""CanBig"":1,""Seaweed"":2}","{""FishSmall"":0,""FishBig"":0,""CanSmall"":2,""CanBig"":2,""Seaweed"":2}",100,100,-5,-10,0,-16.66666667,9.574271078,8.164965809,2,2,-5,-1.409305268,0,0,"{""FishSmall"":2,""FishBig"":0,""CanSmall"":0,""CanBig"":1,""Seaweed"":0}","{""FishSmall"":0,""FishBig"":0,""CanSmall"":1,""CanBig"":2,""Seaweed"":0}",0,-10,0.8,940.5,0.961538462,2,2,2,2,2,2,2,2,2,2,1,2,2,100,30,0.722222222,10,-20,0,0,-0.833333333,3,0,-10,2,0,10,-20
6493626,8,104,Male,1,9-Aug,2,0,trial_1,,0,,,4441.7,8643.1,,"{""FishSmall"":2,""FishBig"":1,""CanSmall"":1,""CanBig"":0,""Seaweed"":2}","{""FishSmall"":0,""FishBig"":0,""CanSmall"":4,""CanBig"":1,""Seaweed"":1}",100,0,5,-10,10,-16.66666667,9.574271078,5.773502692,2,1,-15,-3.800768386,-1,-100,"{""FishSmall"":3,""FishBig"":0,""CanSmall"":0,""CanBig"":0,""Seaweed"":0}","{""FishSmall"":0,""FishBig"":0,""CanSmall"":1,""CanBig"":2,""Seaweed"":0}",10,-10,1,4242.12,1,2,2,2,2,2,2,2,2,2,2,2,2,2,100,1,0.96875,10,0,10,-20,2.666666667,2.666666667,10,-10,2,0,10,0
6493626,8,104,Male,1,9-Aug,2,1,trial_2,,,0,,3969.3,,5046.9,"{""FishSmall"":3,""FishBig"":1,""CanSmall"":0,""CanBig"":0,""Seaweed"":2}","{""FishSmall"":3,""FishBig"":2,""CanSmall"":0,""CanBig"":0,""Seaweed"":1}",0,100,8.333333333,11.66666667,-10,13.33333333,6.871842709,6.871842709,2,1,3.333333333,0,-1,100,"{""FishSmall"":1,""FishBig"":0,""CanSmall"":0,""CanBig"":2,""Seaweed"":0}","{""FishSmall"":2,""FishBig"":1,""CanSmall"":0,""CanBig"":0,""Seaweed"":0}",8.333333333,13.33333333,1,4242.12,1,2,2,2,2,2,2,2,2,2,2,2,2,2,100,2,0.96875,0,10,0,10,2.666666667,2.666666667,13.33333333,8.333333333,1,0,10,0
6493626,8,104,Male,1,9-Aug,2,1,trial_3,,1,0,,7876.5,4553.5,2244.7,"{""FishSmall"":1,""FishBig"":0,""CanSmall"":2,""CanBig"":1,""Seaweed"":2}","{""FishSmall"":3,""FishBig"":1,""CanSmall"":0,""CanBig"":0,""Seaweed"":2}",100,100,-5,8.333333333,-13.33333333,13.33333333,9.574271078,6.871842709,2,2,13.33333333,-2.702428368,0,0,"{""FishSmall"":0,""FishBig"":0,""CanSmall"":2,""CanBig"":1,""Seaweed"":0}","{""FishSmall"":2,""FishBig"":1,""CanSmall"":0,""CanBig"":0,""Seaweed"":0}",-5,13.33333333,1,4242.12,1,2,2,2,2,2,2,2,2,2,2,2,2,2,100,3,0.96875,0,10,0,20,2.666666667,2.666666667,13.33333333,-5,2,0,10,0
6493626,8,104,Male,1,9-Aug,2,1,trial_4,,0,0,,8715.5,7096.4,16702,"{""FishSmall"":3,""FishBig"":2,""CanSmall"":0,""CanBig"":0,""Seaweed"":1}","{""FishSmall"":2,""FishBig"":3,""CanSmall"":0,""CanBig"":0,""Seaweed"":1}",100,100,11.66666667,13.33333333,16.66666667,16.66666667,6.871842709,7.453559925,1,1,1.666666667,0.581717216,0,0,"{""FishSmall"":1,""FishBig"":2,""CanSmall"":0,""CanBig"":0,""Seaweed"":0}","{""FishSmall"":1,""FishBig"":2,""CanSmall"":0,""CanBig"":0,""Seaweed"":0}",11.66666667,16.66666667,1,4242.12,1,2,2,2,2,2,2,2,2,2,2,2,2,2,100,4,0.96875,20,20,10,20,2.666666667,2.666666667,16.66666667,11.66666667,1,0,20,20
6493626,8,104,Male,1,9-Aug,2,0,trial_5,,1,,,8279.1,5824.4,,"{""FishSmall"":2,""FishBig"":0,""CanSmall"":3,""CanBig"":0,""Seaweed"":1}","{""FishSmall"":0,""FishBig"":0,""CanSmall"":2,""CanBig"":4,""Seaweed"":0}",100,0,-1.666666667,-16.66666667,-6.666666667,-16.66666667,8.975274679,4.714045208,1,0,-15,-4.261229471,-1,-100,"{""FishSmall"":1,""FishBig"":0,""CanSmall"":1,""CanBig"":1,""Seaweed"":0}","{""FishSmall"":0,""FishBig"":0,""CanSmall"":1,""CanBig"":2,""Seaweed"":0}",-6.666666667,-16.66666667,1,4242.12,1,2,2,2,2,2,2,2,2,2,2,2,2,2,100,5,0.96875,0,0,0,-10,2.666666667,2.666666667,-6.666666667,-16.66666667,1,0,0,0
6493626,8,104,Male,1,9-Aug,2,1,trial_6,,,,,2367.3,,,"{""FishSmall"":0,""FishBig"":0,""CanSmall"":3,""CanBig"":1,""Seaweed"":2}","{""FishSmall"":3,""FishBig"":0,""CanSmall"":2,""CanBig"":0,""Seaweed"":1}",0,50,-8.333333333,1.666666667,-6.666666667,-6.666666667,6.871842709,8.975274679,2,1,10,2.103431969,-1,50,"{""FishSmall"":1,""FishBig"":0,""CanSmall"":1,""CanBig"":1,""Seaweed"":0}","{""FishSmall"":1,""FishBig"":0,""CanSmall"":1,""CanBig"":1,""Seaweed"":0}",-8.333333333,-6.666666667,1,4242.12,1,2,2,2,2,2,2,2,2,2,2,2,2,2,100,6,0.96875,0,-20,-20,0,2.666666667,2.666666667,-6.666666667,-8.333333333,1,0,-20,0
6493626,8,104,Male,1,9-Aug,2,1,trial_7,,1,1,,9503.7,7818,9644.3,"{""FishSmall"":1,""FishBig"":0,""CanSmall"":3,""CanBig"":0,""Seaweed"":2}","{""FishSmall"":3,""FishBig"":0,""CanSmall"":1,""CanBig"":0,""Seaweed"":2}",50,50,-3.333333333,3.333333333,0,-6.666666667,7.453559925,7.453559925,2,2,6.666666667,-8.88E-16,0,0,"{""FishSmall"":0,""FishBig"":1,""CanSmall"":2,""CanBig"":0,""Seaweed"":0}","{""FishSmall"":1,""FishBig"":0,""CanSmall"":1,""CanBig"":1,""Seaweed"":0}",-3.333333333,-6.666666667,1,4242.12,1,2,2,2,2,2,2,2,2,2,2,2,2,2,100,7,0.96875,0,0,0,0,2.666666667,2.666666667,-6.666666667,-3.333333333,2,0,0,0
6493626,8,104,Male,1,9-Aug,2,0,trial_8,,0,1,,33903,2526.4,5123.8,"{""FishSmall"":1,""FishBig"":3,""CanSmall"":0,""CanBig"":0,""Seaweed"":2}","{""FishSmall"":1,""FishBig"":0,""CanSmall"":2,""CanBig"":0,""Seaweed"":3}",100,50,11.66666667,-1.666666667,16.66666667,10,8.975274679,6.871842709,2,3,-13.33333333,-2.103431969,1,-50,"{""FishSmall"":1,""FishBig"":2,""CanSmall"":0,""CanBig"":0,""Seaweed"":0}","{""FishSmall"":0,""FishBig"":2,""CanSmall"":1,""CanBig"":0,""Seaweed"":0}",16.66666667,-1.666666667,1,4242.12,1,2,2,2,2,2,2,2,2,2,2,2,2,2,100,8,0.96875,10,0,10,0,2.666666667,2.666666667,16.66666667,-1.666666667,2,0,10,0
6493626,8,104,Male,1,9-Aug,2,0,trial_9,,,1,,32745.5,,5701.1,"{""FishSmall"":1,""FishBig"":0,""CanSmall"":4,""CanBig"":0,""Seaweed"":1}","{""FishSmall"":0,""FishBig"":0,""CanSmall"":4,""CanBig"":2,""Seaweed"":0}",0,50,-5,-13.33333333,0,-13.33333333,7.637626158,4.714045208,1,0,-8.333333333,-2.92358095,-1,50,"{""FishSmall"":0,""FishBig"":1,""CanSmall"":2,""CanBig"":0,""Seaweed"":0}","{""FishSmall"":0,""FishBig"":0,""CanSmall"":2,""CanBig"":1,""Seaweed"":0}",0,-13.33333333,1,4242.12,1,2,2,2,2,2,2,2,2,2,2,2,2,2,100,9,0.96875,0,0,0,0,2.666666667,2.666666667,0,-13.33333333,1,0,0,0
6493626,8,104,Male,1,9-Aug,2,0,trial_10,,,1,,15661.3,,7330,"{""FishSmall"":3,""FishBig"":0,""CanSmall"":1,""CanBig"":0,""Seaweed"":2}","{""FishSmall"":1,""FishBig"":0,""CanSmall"":2,""CanBig"":0,""Seaweed"":3}",50,50,3.333333333,-1.666666667,3.333333333,-3.333333333,7.453559925,6.871842709,2,3,-5,-0.581717216,1,0,"{""FishSmall"":2,""FishBig"":0,""CanSmall"":1,""CanBig"":0,""Seaweed"":0}","{""FishSmall"":1,""FishBig"":0,""CanSmall"":2,""CanBig"":0,""Seaweed"":0}",3.333333333,-1.666666667,1,4242.12,1,2,2,2,2,2,2,2,2,2,2,2,2,2,100,10,0.96875,0,0,0,0,2.666666667,2.666666667,3.333333333,-1.666666667,2,0,0,0
6493626,8,104,Male,1,9-Aug,2,,catch_1,0,,,3016,,,,"{""FishSmall"":4,""FishBig"":2,""CanSmall"":0,""CanBig"":0,""Seaweed"":0}","{""FishSmall"":4,""FishBig"":2,""CanSmall"":0,""CanBig"":0,""Seaweed"":0}",0,0,,,,,,,,,,,,,"{""FishSmall"":2,""FishBig"":1,""CanSmall"":0,""CanBig"":0,""Seaweed"":0}","{""FishSmall"":3,""FishBig"":0,""CanSmall"":0,""CanBig"":0,""Seaweed"":0}",,,1,4242.12,1,2,2,2,2,2,2,2,2,2,2,2,2,2,100,,0.96875,,,,,,,,,,,,
6493626,8,104,Male,1,9-Aug,2,0,trial_11,,0,,,17220.4,11100.2,,"{""FishSmall"":2,""FishBig"":0,""CanSmall"":1,""CanBig"":0,""Seaweed"":3}","{""FishSmall"":1,""FishBig"":0,""CanSmall"":5,""CanBig"":0,""Seaweed"":0}",100,0,1.666666667,-6.666666667,3.333333333,-3.333333333,6.871842709,7.453559925,3,0,-8.333333333,0.581717216,-3,-100,"{""FishSmall"":2,""FishBig"":0,""CanSmall"":1,""CanBig"":0,""Seaweed"":0}","{""FishSmall"":1,""FishBig"":0,""CanSmall"":2,""CanBig"":0,""Seaweed"":0}",3.333333333,-6.666666667,1,4242.12,1,2,2,2,2,2,2,2,2,2,2,2,2,2,100,11,0.96875,10,0,-10,0,2.666666667,2.666666667,3.333333333,-6.666666667,3,0,10,0
6493626,8,104,Male,1,9-Aug,2,1,trial_12,,1,,,19992.5,7488.5,,"{""FishSmall"":1,""FishBig"":0,""CanSmall"":2,""CanBig"":0,""Seaweed"":3}","{""FishSmall"":1,""FishBig"":2,""CanSmall"":0,""CanBig"":0,""Seaweed"":3}",50,0,-1.666666667,8.333333333,-6.666666667,16.66666667,6.871842709,8.975274679,3,3,10,2.103431969,0,-50,"{""FishSmall"":1,""FishBig"":0,""CanSmall"":1,""CanBig"":1,""Seaweed"":0}","{""FishSmall"":1,""FishBig"":2,""CanSmall"":0,""CanBig"":0,""Seaweed"":0}",-1.666666667,16.66666667,1,4242.12,1,2,2,2,2,2,2,2,2,2,2,2,2,2,100,12,0.96875,0,0,0,0,2.666666667,2.666666667,16.66666667,-1.666666667,3,0,0,0
6493626,8,104,Male,1,9-Aug,2,1,trial_13,,,,,10350.9,,,"{""FishSmall"":1,""FishBig"":2,""CanSmall"":0,""CanBig"":0,""Seaweed"":3}","{""FishSmall"":4,""FishBig"":1,""CanSmall"":1,""CanBig"":0,""Seaweed"":0}",0,0,8.333333333,8.333333333,3.333333333,3.333333333,8.975274679,8.975274679,3,0,0,0,-3,0,"{""FishSmall"":1,""FishBig"":1,""CanSmall"":0,""CanBig"":1,""Seaweed"":0}","{""FishSmall"":2,""FishBig"":0,""CanSmall"":1,""CanBig"":0,""Seaweed"":0}",8.333333333,3.333333333,1,4242.12,1,2,2,2,2,2,2,2,2,2,2,2,2,2,100,13,0.96875,0,0,-20,0,2.666666667,2.666666667,3.333333333,8.333333333,0,0,0,0
6493626,8,104,Male,1,9-Aug,2,1,trial_14,,1,,,7817.4,5343.8,,"{""FishSmall"":0,""FishBig"":0,""CanSmall"":3,""CanBig"":1,""Seaweed"":2}","{""FishSmall"":1,""FishBig"":0,""CanSmall"":1,""CanBig"":1,""Seaweed"":3}",50,0,-8.333333333,-3.333333333,0,16.66666667,6.871842709,9.428090416,2,3,5,2.556247706,1,-50,"{""FishSmall"":0,""FishBig"":1,""CanSmall"":2,""CanBig"":0,""Seaweed"":0}","{""FishSmall"":1,""FishBig"":2,""CanSmall"":0,""CanBig"":0,""Seaweed"":0}",-8.333333333,16.66666667,1,4242.12,1,2,2,2,2,2,2,2,2,2,2,2,2,2,100,14,0.96875,0,20,0,20,2.666666667,2.666666667,16.66666667,-8.333333333,3,0,20,0
6493626,8,104,Male,1,9-Aug,2,1,trial_15,,,,,24728.9,,2137.9,"{""FishSmall"":3,""FishBig"":0,""CanSmall"":2,""CanBig"":0,""Seaweed"":1}","{""FishSmall"":1,""FishBig"":3,""CanSmall"":0,""CanBig"":0,""Seaweed"":2}",0,0,1.666666667,11.66666667,-3.333333333,13.33333333,8.975274679,8.975274679,1,2,10,0,1,0,"{""FishSmall"":1,""FishBig"":0,""CanSmall"":2,""CanBig"":0,""Seaweed"":0}","{""FishSmall"":2,""FishBig"":1,""CanSmall"":0,""CanBig"":0,""Seaweed"":0}",1.666666667,13.33333333,1,4242.12,1,2,2,2,2,2,2,2,2,2,2,2,2,2,100,15,0.96875,10,10,-10,0,2.666666667,2.666666667,13.33333333,1.666666667,2,0,10,10
6493626,8,104,Male,1,9-Aug,2,1,trial_16,,1,0,,10197.5,10527.9,7888.4,"{""FishSmall"":0,""FishBig"":0,""CanSmall"":4,""CanBig"":0,""Seaweed"":2}","{""FishSmall"":3,""FishBig"":0,""CanSmall"":1,""CanBig"":0,""Seaweed"":2}",100,100,-6.666666667,3.333333333,-3.333333333,6.666666667,4.714045208,7.453559925,2,2,10,2.739514717,0,0,"{""FishSmall"":1,""FishBig"":0,""CanSmall"":2,""CanBig"":0,""Seaweed"":0}","{""FishSmall"":1,""FishBig"":1,""CanSmall"":1,""CanBig"":0,""Seaweed"":0}",-6.666666667,6.666666667,1,4242.12,1,2,2,2,2,2,2,2,2,2,2,2,2,2,100,16,0.96875,0,-10,0,20,2.666666667,2.666666667,6.666666667,-6.666666667,2,0,-10,0
6493626,8,104,Male,1,9-Aug,2,1,trial_17,,,1,,7766.3,,1672.2,"{""FishSmall"":1,""FishBig"":0,""CanSmall"":2,""CanBig"":0,""Seaweed"":3}","{""FishSmall"":2,""FishBig"":0,""CanSmall"":1,""CanBig"":0,""Seaweed"":3}",0,100,-1.666666667,1.666666667,3.333333333,-3.333333333,6.871842709,6.871842709,3,3,3.333333333,0,0,100,"{""FishSmall"":2,""FishBig"":0,""CanSmall"":1,""CanBig"":0,""Seaweed"":0}","{""FishSmall"":1,""FishBig"":0,""CanSmall"":2,""CanBig"":0,""Seaweed"":0}",-1.666666667,-3.333333333,1,4242.12,1,2,2,2,2,2,2,2,2,2,2,2,2,2,100,17,0.96875,0,0,0,0,2.666666667,2.666666667,-3.333333333,-1.666666667,3,0,0,0
6493626,8,104,Male,1,9-Aug,2,1,trial_18,,,0,,8425.9,,5342.2,"{""FishSmall"":1,""FishBig"":2,""CanSmall"":0,""CanBig"":0,""Seaweed"":3}","{""FishSmall"":1,""FishBig"":2,""CanSmall"":0,""CanBig"":0,""Seaweed"":3}",50,100,8.333333333,8.333333333,3.333333333,16.66666667,8.975274679,8.975274679,3,3,0,0,0,50,"{""FishSmall"":2,""FishBig"":0,""CanSmall"":1,""CanBig"":0,""Seaweed"":0}","{""FishSmall"":1,""FishBig"":2,""CanSmall"":0,""CanBig"":0,""Seaweed"":0}",8.333333333,16.66666667,1,4242.12,1,2,2,2,2,2,2,2,2,2,2,2,2,2,100,18,0.96875,0,10,-10,20,2.666666667,2.666666667,16.66666667,8.333333333,3,0,10,0
6493626,8,104,Male,1,9-Aug,2,0,trial_19,,1,,,7598.4,3871.2,,"{""FishSmall"":1,""FishBig"":0,""CanSmall"":3,""CanBig"":0,""Seaweed"":2}","{""FishSmall"":4,""FishBig"":2,""CanSmall"":0,""CanBig"":0,""Seaweed"":0}",100,0,-3.333333333,13.33333333,-3.333333333,16.66666667,7.453559925,4.714045208,2,0,16.66666667,-2.739514717,-2,-100,"{""FishSmall"":0,""FishBig"":1,""CanSmall"":1,""CanBig"":1,""Seaweed"":0}","{""FishSmall"":1,""FishBig"":2,""CanSmall"":0,""CanBig"":0,""Seaweed"":0}",-3.333333333,13.33333333,1,4242.12,1,2,2,2,2,2,2,2,2,2,2,2,2,2,100,19,0.96875,0,0,0,0,2.666666667,2.666666667,-3.333333333,13.33333333,2,0,0,0
6493626,8,104,Male,1,9-Aug,2,1,trial_20,,1,1,,7401.2,2242.8,2437.5,"{""FishSmall"":0,""FishBig"":0,""CanSmall"":2,""CanBig"":4,""Seaweed"":0}","{""FishSmall"":0,""FishBig"":0,""CanSmall"":5,""CanBig"":0,""Seaweed"":1}",100,50,-16.66666667,-8.333333333,-16.66666667,-10,4.714045208,3.726779962,0,1,8.333333333,-0.987265245,1,-50,"{""FishSmall"":0,""FishBig"":0,""CanSmall"":1,""CanBig"":2,""Seaweed"":0}","{""FishSmall"":0,""FishBig"":0,""CanSmall"":3,""CanBig"":0,""Seaweed"":0}",-16.66666667,-10,1,4242.12,1,2,2,2,2,2,2,2,2,2,2,2,2,2,100,20,0.96875,0,0,0,0,2.666666667,2.666666667,-10,-16.66666667,1,0,0,0
6493626,8,104,Male,1,9-Aug,2,,catch_2,1,,,3129.5,,,,"{""FishSmall"":0,""FishBig"":0,""CanSmall"":3,""CanBig"":3,""Seaweed"":0}","{""FishSmall"":0,""FishBig"":0,""CanSmall"":3,""CanBig"":3,""Seaweed"":0}",0,0,,,,,,,,,,,,,"{""FishSmall"":0,""FishBig"":0,""CanSmall"":0,""CanBig"":3,""Seaweed"":0}","{""FishSmall"":0,""FishBig"":0,""CanSmall"":2,""CanBig"":1,""Seaweed"":0}",,,1,4242.12,1,2,2,2,2,2,2,2,2,2,2,2,2,2,100,,0.96875,,,,,,,,,,,,
6493626,8,104,Male,1,9-Aug,2,0,trial_21,,,,,3658.2,,,"{""FishSmall"":0,""FishBig"":0,""CanSmall"":1,""CanBig"":2,""Seaweed"":3}","{""FishSmall"":0,""FishBig"":4,""CanSmall"":0,""CanBig"":0,""Seaweed"":2}",0,0,-8.333333333,13.33333333,-10,20,8.975274679,9.428090416,3,2,21.66666667,0.452815737,-1,0,"{""FishSmall"":1,""FishBig"":0,""CanSmall"":0,""CanBig"":2,""Seaweed"":0}","{""FishSmall"":0,""FishBig"":3,""CanSmall"":0,""CanBig"":0,""Seaweed"":0}",-10,13.33333333,1,4242.12,1,2,2,2,2,2,2,2,2,2,2,2,2,2,100,21,0.96875,-20,20,0,20,2.666666667,2.666666667,-10,13.33333333,3,0,-20,20
6493626,8,104,Male,1,9-Aug,2,0,trial_22,,,1,,6847.7,,10890.6,"{""FishSmall"":0,""FishBig"":0,""CanSmall"":2,""CanBig"":3,""Seaweed"":1}","{""FishSmall"":3,""FishBig"":2,""CanSmall"":0,""CanBig"":0,""Seaweed"":1}",0,100,-13.33333333,11.66666667,-13.33333333,20,7.453559925,6.871842709,1,1,25,-0.581717216,0,100,"{""FishSmall"":0,""FishBig"":0,""CanSmall"":2,""CanBig"":1,""Seaweed"":0}","{""FishSmall"":0,""FishBig"":3,""CanSmall"":0,""CanBig"":0,""Seaweed"":0}",-13.33333333,11.66666667,1,4242.12,1,2,2,2,2,2,2,2,2,2,2,2,2,2,100,22,0.96875,0,0,0,20,2.666666667,2.666666667,-13.33333333,11.66666667,1,0,0,0
6493626,8,104,Male,1,9-Aug,2,0,trial_23,,,,,6686.9,,,"{""FishSmall"":3,""FishBig"":1,""CanSmall"":1,""CanBig"":0,""Seaweed"":1}","{""FishSmall"":2,""FishBig"":0,""CanSmall"":3,""CanBig"":0,""Seaweed"":1}",50,0,6.666666667,-1.666666667,6.666666667,-3.333333333,9.428090416,8.975274679,1,1,-8.333333333,-0.452815737,0,-50,"{""FishSmall"":1,""FishBig"":1,""CanSmall"":1,""CanBig"":0,""Seaweed"":0}","{""FishSmall"":1,""FishBig"":0,""CanSmall"":2,""CanBig"":0,""Seaweed"":0}",6.666666667,-1.666666667,1,4242.12,1,2,2,2,2,2,2,2,2,2,2,2,2,2,100,23,0.96875,0,-10,10,0,2.666666667,2.666666667,6.666666667,-1.666666667,1,0,0,-10
6493626,8,104,Male,1,9-Aug,2,0,trial_24,,,,,15692.6,,,"{""FishSmall"":1,""FishBig"":0,""CanSmall"":4,""CanBig"":0,""Seaweed"":1}","{""FishSmall"":1,""FishBig"":0,""CanSmall"":1,""CanBig"":1,""Seaweed"":3}",0,0,-5,-3.333333333,-3.333333333,3.333333333,7.637626158,9.428090416,1,3,1.666666667,1.790464258,2,0,"{""FishSmall"":1,""FishBig"":0,""CanSmall"":2,""CanBig"":0,""Seaweed"":0}","{""FishSmall"":1,""FishBig"":1,""CanSmall"":0,""CanBig"":1,""Seaweed"":0}",-3.333333333,-3.333333333,1,4242.12,1,2,2,2,2,2,2,2,2,2,2,2,2,2,100,24,0.96875,-10,10,0,10,2.666666667,2.666666667,-3.333333333,-3.333333333,1,0,-10,10
6493626,8,104,Male,1,9-Aug,2,0,trial_25,,,1,,4292.1,3275.6,4087.4,"{""FishSmall"":0,""FishBig"":1,""CanSmall"":0,""CanBig"":1,""Seaweed"":4}","{""FishSmall"":1,""FishBig"":0,""CanSmall"":3,""CanBig"":1,""Seaweed"":1}",0,50,0,-6.666666667,-6.666666667,-13.33333333,11.54700538,9.428090416,4,1,-6.666666667,-2.118914968,-3,50,"{""FishSmall"":1,""FishBig"":0,""CanSmall"":1,""CanBig"":1,""Seaweed"":0}","{""FishSmall"":0,""FishBig"":0,""CanSmall"":2,""CanBig"":1,""Seaweed"":0}",-6.666666667,-6.666666667,1,4242.12,1,2,2,2,2,2,2,2,2,2,2,2,2,2,100,25,0.96875,0,0,0,0,2.666666667,2.666666667,-6.666666667,-6.666666667,4,0,0,0
6493626,8,104,Male,1,9-Aug,2,1,trial_26,,,0,,9870.2,,2450.6,"{""FishSmall"":5,""FishBig"":0,""CanSmall"":1,""CanBig"":0,""Seaweed"":0}","{""FishSmall"":2,""FishBig"":1,""CanSmall"":1,""CanBig"":0,""Seaweed"":2}",50,50,6.666666667,5,3.333333333,10,7.453559925,9.574271078,0,2,-1.666666667,2.120711153,2,0,"{""FishSmall"":2,""FishBig"":0,""CanSmall"":1,""CanBig"":0,""Seaweed"":0}","{""FishSmall"":0,""FishBig"":2,""CanSmall"":1,""CanBig"":0,""Seaweed"":0}",6.666666667,10,1,4242.12,1,2,2,2,2,2,2,2,2,2,2,2,2,2,100,26,0.96875,10,20,0,20,2.666666667,2.666666667,10,6.666666667,2,0,20,10
6493626,8,104,Male,1,9-Aug,2,1,trial_27,,,0,,9833.8,,2670.6,"{""FishSmall"":1,""FishBig"":0,""CanSmall"":2,""CanBig"":1,""Seaweed"":2}","{""FishSmall"":3,""FishBig"":1,""CanSmall"":0,""CanBig"":0,""Seaweed"":2}",50,50,-5,8.333333333,3.333333333,13.33333333,9.574271078,6.871842709,2,2,13.33333333,-2.702428368,0,0,"{""FishSmall"":2,""FishBig"":0,""CanSmall"":1,""CanBig"":0,""Seaweed"":0}","{""FishSmall"":2,""FishBig"":1,""CanSmall"":0,""CanBig"":0,""Seaweed"":0}",-5,13.33333333,1,4242.12,1,2,2,2,2,2,2,2,2,2,2,2,2,2,100,27,0.96875,0,20,10,20,2.666666667,2.666666667,13.33333333,-5,2,0,20,0
6493626,8,104,Male,1,9-Aug,2,1,trial_28,,0,1,,6632.1,3984.6,2928.1,"{""FishSmall"":3,""FishBig"":2,""CanSmall"":0,""CanBig"":0,""Seaweed"":1}","{""FishSmall"":2,""FishBig"":1,""CanSmall"":1,""CanBig"":0,""Seaweed"":2}",100,50,11.66666667,5,10,-3.333333333,6.871842709,9.574271078,1,2,-6.666666667,2.702428368,1,-50,"{""FishSmall"":3,""FishBig"":0,""CanSmall"":0,""CanBig"":0,""Seaweed"":0}","{""FishSmall"":1,""FishBig"":0,""CanSmall"":2,""CanBig"":0,""Seaweed"":0}",11.66666667,-3.333333333,1,4242.12,1,2,2,2,2,2,2,2,2,2,2,2,2,2,100,28,0.96875,10,0,10,0,2.666666667,2.666666667,-3.333333333,11.66666667,2,0,0,10
6493626,8,104,Male,1,9-Aug,2,1,trial_29,,1,1,,10244.6,2865.9,2243.5,"{""FishSmall"":0,""FishBig"":0,""CanSmall"":3,""CanBig"":2,""Seaweed"":1}","{""FishSmall"":1,""FishBig"":0,""CanSmall"":3,""CanBig"":1,""Seaweed"":1}",100,100,-11.66666667,-6.666666667,-13.33333333,-13.33333333,6.871842709,9.428090416,1,1,5,2.556247706,0,0,"{""FishSmall"":0,""FishBig"":0,""CanSmall"":2,""CanBig"":1,""Seaweed"":0}","{""FishSmall"":0,""FishBig"":0,""CanSmall"":2,""CanBig"":1,""Seaweed"":0}",-11.66666667,-13.33333333,1,4242.12,1,2,2,2,2,2,2,2,2,2,2,2,2,2,100,29,0.96875,0,0,0,0,2.666666667,2.666666667,-13.33333333,-11.66666667,1,0,0,0
6493626,8,104,Male,1,9-Aug,2,0,trial_30,,,1,,5160.9,2443.2,16014.9,"{""FishSmall"":1,""FishBig"":1,""CanSmall"":1,""CanBig"":0,""Seaweed"":3}","{""FishSmall"":0,""FishBig"":0,""CanSmall"":4,""CanBig"":1,""Seaweed"":1}",0,50,3.333333333,-10,6.666666667,-13.33333333,9.428090416,5.773502692,3,1,-13.33333333,-3.654587724,-2,50,"{""FishSmall"":1,""FishBig"":1,""CanSmall"":1,""CanBig"":0,""Seaweed"":0}","{""FishSmall"":0,""FishBig"":0,""CanSmall"":2,""CanBig"":1,""Seaweed"":0}",6.666666667,-10,1,4242.12,1,2,2,2,2,2,2,2,2,2,2,2,2,2,100,30,0.96875,0,0,0,0,2.666666667,2.666666667,6.666666667,-10,3,0,0,0
6493958,6,80,Female,2,7-Jun,1,1,trial_1,,,0,,8481,,7361.9,"{""FishSmall"":0,""FishBig"":0,""CanSmall"":3,""CanBig"":2,""Seaweed"":1}","{""FishSmall"":0,""FishBig"":0,""CanSmall"":0,""CanBig"":5,""Seaweed"":1}",0,50,-11.66666667,-16.66666667,-13.33333333,-20,6.871842709,7.453559925,1,1,-5,0.581717216,0,50,"{""FishSmall"":0,""FishBig"":0,""CanSmall"":2,""CanBig"":1,""Seaweed"":0}","{""FishSmall"":0,""FishBig"":0,""CanSmall"":0,""CanBig"":3,""Seaweed"":0}",-11.66666667,-20,0.5,1669.06,0.807692308,2,2,2,2,2,1,0,2,2,2,1,1,2,100,1,0.75,0,-20,-10,0,3.166666667,3.166666667,-20,-11.66666667,1,0,-20,0
6493958,6,80,Female,2,7-Jun,1,0,trial_2,,,,,5603.5,,,"{""FishSmall"":3,""FishBig"":0,""CanSmall"":1,""CanBig"":0,""Seaweed"":2}","{""FishSmall"":1,""FishBig"":0,""CanSmall"":3,""CanBig"":1,""Seaweed"":1}",0,0,3.333333333,-6.666666667,-3.333333333,-13.33333333,7.453559925,9.428090416,2,1,-10,1.974530491,-1,0,"{""FishSmall"":1,""FishBig"":0,""CanSmall"":2,""CanBig"":0,""Seaweed"":0}","{""FishSmall"":0,""FishBig"":0,""CanSmall"":2,""CanBig"":1,""Seaweed"":0}",-3.333333333,-6.666666667,0.5,1669.06,0.807692308,2,2,2,2,2,1,0,2,2,2,1,1,2,100,2,0.75,-10,-10,-10,0,3.166666667,3.166666667,-3.333333333,-6.666666667,2,0,-10,-10
6493958,6,80,Female,2,7-Jun,1,0,trial_3,,,,,6719.200001,,,"{""FishSmall"":2,""FishBig"":1,""CanSmall"":0,""CanBig"":0,""Seaweed"":3}","{""FishSmall"":3,""FishBig"":1,""CanSmall"":1,""CanBig"":0,""Seaweed"":1}",50,0,6.666666667,6.666666667,-3.333333333,3.333333333,7.453559925,9.428090416,3,1,0,1.974530491,-2,-50,"{""FishSmall"":0,""FishBig"":1,""CanSmall"":1,""CanBig"":1,""Seaweed"":0}","{""FishSmall"":2,""FishBig"":0,""CanSmall"":1,""CanBig"":0,""Seaweed"":0}",-3.333333333,6.666666667,0.5,1669.06,0.807692308,2,2,2,2,2,1,0,2,2,2,1,1,2,100,3,0.75,-10,0,0,0,3.166666667,3.166666667,-3.333333333,6.666666667,3,0,-10,0
6493958,6,80,Female,2,7-Jun,1,1,trial_4,,,,,2059.5,,,"{""FishSmall"":4,""FishBig"":1,""CanSmall"":1,""CanBig"":0,""Seaweed"":0}","{""FishSmall"":5,""FishBig"":1,""CanSmall"":0,""CanBig"":0,""Seaweed"":0}",50,0,8.333333333,11.66666667,13.33333333,13.33333333,8.975274679,3.726779962,0,0,3.333333333,-5.248494716,0,-50,"{""FishSmall"":2,""FishBig"":1,""CanSmall"":0,""CanBig"":0,""Seaweed"":0}","{""FishSmall"":2,""FishBig"":1,""CanSmall"":0,""CanBig"":0,""Seaweed"":0}",8.333333333,13.33333333,0.5,1669.06,0.807692308,2,2,2,2,2,1,0,2,2,2,1,1,2,100,4,0.75,20,10,10,10,3.166666667,3.166666667,13.33333333,8.333333333,0,0,10,20
6493958,6,80,Female,2,7-Jun,1,1,trial_5,,,,,7542,,,"{""FishSmall"":1,""FishBig"":0,""CanSmall"":1,""CanBig"":1,""Seaweed"":3}","{""FishSmall"":1,""FishBig"":0,""CanSmall"":1,""CanBig"":1,""Seaweed"":3}",0,50,-3.333333333,-3.333333333,-6.666666667,3.333333333,9.428090416,9.428090416,3,3,0,0,0,50,"{""FishSmall"":1,""FishBig"":0,""CanSmall"":1,""CanBig"":1,""Seaweed"":0}","{""FishSmall"":1,""FishBig"":1,""CanSmall"":0,""CanBig"":1,""Seaweed"":0}",-3.333333333,3.333333333,0.5,1669.06,0.807692308,2,2,2,2,2,1,0,2,2,2,1,1,2,100,5,0.75,10,0,-20,-20,3.166666667,3.166666667,3.333333333,-3.333333333,3,0,0,10
6493958,6,80,Female,2,7-Jun,1,0,trial_6,,0,,,2582.9,1879.5,,"{""FishSmall"":2,""FishBig"":1,""CanSmall"":1,""CanBig"":0,""Seaweed"":2}","{""FishSmall"":3,""FishBig"":0,""CanSmall"":1,""CanBig"":0,""Seaweed"":2}",100,0,5,3.333333333,-3.333333333,13.33333333,9.574271078,7.453559925,2,2,-1.666666667,-2.120711153,0,-100,"{""FishSmall"":1,""FishBig"":0,""CanSmall"":2,""CanBig"":0,""Seaweed"":0}","{""FishSmall"":2,""FishBig"":1,""CanSmall"":0,""CanBig"":0,""Seaweed"":0}",-3.333333333,3.333333333,0.5,1669.06,0.807692308,2,2,2,2,2,1,0,2,2,2,1,1,2,100,6,0.75,10,0,0,0,3.166666667,3.166666667,-3.333333333,3.333333333,2,0,10,0
6493958,6,80,Female,2,7-Jun,1,0,trial_7,,,,,10578.9,,,"{""FishSmall"":4,""FishBig"":1,""CanSmall"":0,""CanBig"":0,""Seaweed"":1}","{""FishSmall"":0,""FishBig"":0,""CanSmall"":2,""CanBig"":2,""Seaweed"":2}",50,0,10,-10,10,-16.66666667,5.773502692,8.164965809,1,2,-20,2.391463117,1,-50,"{""FishSmall"":3,""FishBig"":0,""CanSmall"":0,""CanBig"":0,""Seaweed"":0}","{""FishSmall"":0,""FishBig"":0,""CanSmall"":1,""CanBig"":2,""Seaweed"":0}",10,-10,0.5,1669.06,0.807692308,2,2,2,2,2,1,0,2,2,2,1,1,2,100,7,0.75,0,-20,10,-10,3.166666667,3.166666667,10,-10,1,0,0,-20
6493958,6,80,Female,2,7-Jun,1,0,trial_8,,0,,,3474.9,1698.1,,"{""FishSmall"":2,""FishBig"":1,""CanSmall"":1,""CanBig"":0,""Seaweed"":2}","{""FishSmall"":3,""FishBig"":1,""CanSmall"":0,""CanBig"":0,""Seaweed"":2}",100,50,5,8.333333333,13.33333333,13.33333333,9.574271078,6.871842709,2,2,3.333333333,-2.702428368,0,-50,"{""FishSmall"":2,""FishBig"":1,""CanSmall"":0,""CanBig"":0,""Seaweed"":0}","{""FishSmall"":2,""FishBig"":1,""CanSmall"":0,""CanBig"":0,""Seaweed"":0}",13.33333333,8.333333333,0.5,1669.06,0.807692308,2,2,2,2,2,1,0,2,2,2,1,1,2,100,8,0.75,10,20,20,0,3.166666667,3.166666667,13.33333333,8.333333333,2,0,10,20
6493958,6,80,Female,2,7-Jun,1,0,trial_9,,0,,,1653.299999,1740.400002,,"{""FishSmall"":2,""FishBig"":3,""CanSmall"":0,""CanBig"":0,""Seaweed"":1}","{""FishSmall"":3,""FishBig"":1,""CanSmall"":0,""CanBig"":0,""Seaweed"":2}",100,50,13.33333333,8.333333333,16.66666667,-3.333333333,7.453559925,6.871842709,1,2,-5,-0.581717216,1,-50,"{""FishSmall"":1,""FishBig"":2,""CanSmall"":0,""CanBig"":0,""Seaweed"":0}","{""FishSmall"":1,""FishBig"":0,""CanSmall"":2,""CanBig"":0,""Seaweed"":0}",16.66666667,8.333333333,0.5,1669.06,0.807692308,2,2,2,2,2,1,0,2,2,2,1,1,2,100,9,0.75,10,0,10,0,3.166666667,3.166666667,16.66666667,8.333333333,1,0,10,0
6493958,6,80,Female,2,7-Jun,1,1,trial_10,,1,0,,1987.6,7099.1,2156.299999,"{""FishSmall"":3,""FishBig"":0,""CanSmall"":1,""CanBig"":0,""Seaweed"":2}","{""FishSmall"":2,""FishBig"":1,""CanSmall"":1,""CanBig"":0,""Seaweed"":2}",50,100,3.333333333,5,-6.666666667,3.333333333,7.453559925,9.574271078,2,2,1.666666667,2.120711153,0,50,"{""FishSmall"":1,""FishBig"":0,""CanSmall"":1,""CanBig"":1,""Seaweed"":0}","{""FishSmall"":1,""FishBig"":1,""CanSmall"":0,""CanBig"":1,""Seaweed"":0}",3.333333333,3.333333333,0.5,1669.06,0.807692308,2,2,2,2,2,1,0,2,2,2,1,1,2,100,10,0.75,0,10,-20,-20,3.166666667,3.166666667,3.333333333,3.333333333,2,0,10,0
6493958,6,80,Female,2,7-Jun,1,,catch_1,0,,,6455.6,,,,"{""FishSmall"":4,""FishBig"":2,""CanSmall"":0,""CanBig"":0,""Seaweed"":0}","{""FishSmall"":4,""FishBig"":2,""CanSmall"":0,""CanBig"":0,""Seaweed"":0}",0,0,,,,,,,,,,,,,"{""FishSmall"":2,""FishBig"":1,""CanSmall"":0,""CanBig"":0,""Seaweed"":0}","{""FishSmall"":2,""FishBig"":1,""CanSmall"":0,""CanBig"":0,""Seaweed"":0}",,,0.5,1669.06,0.807692308,2,2,2,2,2,1,0,2,2,2,1,1,2,100,,0.75,,,,,,,,,,,,
6493958,6,80,Female,2,7-Jun,1,0,trial_11,,0,,,18291.4,4881,,"{""FishSmall"":2,""FishBig"":3,""CanSmall"":0,""CanBig"":0,""Seaweed"":1}","{""FishSmall"":3,""FishBig"":1,""CanSmall"":1,""CanBig"":0,""Seaweed"":1}",50,0,13.33333333,6.666666667,10,6.666666667,7.453559925,9.428090416,1,1,-6.666666667,1.974530491,0,-50,"{""FishSmall"":0,""FishBig"":2,""CanSmall"":1,""CanBig"":0,""Seaweed"":0}","{""FishSmall"":1,""FishBig"":1,""CanSmall"":1,""CanBig"":0,""Seaweed"":0}",10,6.666666667,0.5,1669.06,0.807692308,2,2,2,2,2,1,0,2,2,2,1,1,2,100,11,0.75,20,0,20,0,3.166666667,3.166666667,10,6.666666667,1,0,20,0
6493958,6,80,Female,2,7-Jun,1,1,trial_12,,,0,,1854.1,,1815.300001,"{""FishSmall"":1,""FishBig"":0,""CanSmall"":2,""CanBig"":1,""Seaweed"":2}","{""FishSmall"":3,""FishBig"":1,""CanSmall"":1,""CanBig"":0,""Seaweed"":1}",0,100,-5,6.666666667,-10,13.33333333,9.574271078,9.428090416,2,1,11.66666667,-0.146180662,-1,100,"{""FishSmall"":0,""FishBig"":0,""CanSmall"":3,""CanBig"":0,""Seaweed"":0}","{""FishSmall"":2,""FishBig"":1,""CanSmall"":0,""CanBig"":0,""Seaweed"":0}",-5,13.33333333,0.5,1669.06,0.807692308,2,2,2,2,2,1,0,2,2,2,1,1,2,100,12,0.75,0,10,-10,20,3.166666667,3.166666667,13.33333333,-5,1,0,10,0
6493958,6,80,Female,2,7-Jun,1,0,trial_13,,,,,4920.299999,,,"{""FishSmall"":1,""FishBig"":1,""CanSmall"":1,""CanBig"":0,""Seaweed"":3}","{""FishSmall"":2,""FishBig"":1,""CanSmall"":1,""CanBig"":0,""Seaweed"":2}",50,0,3.333333333,5,10,-3.333333333,9.428090416,9.574271078,3,2,1.666666667,0.146180662,-1,-50,"{""FishSmall"":0,""FishBig"":2,""CanSmall"":1,""CanBig"":0,""Seaweed"":0}","{""FishSmall"":1,""FishBig"":0,""CanSmall"":2,""CanBig"":0,""Seaweed"":0}",10,5,0.5,1669.06,0.807692308,2,2,2,2,2,1,0,2,2,2,1,1,2,100,13,0.75,20,-10,20,10,3.166666667,3.166666667,10,5,3,0,20,-10
6493958,6,80,Female,2,7-Jun,1,0,trial_14,,0,1,,10354.4,10575.8,3587.799999,"{""FishSmall"":1,""FishBig"":3,""CanSmall"":0,""CanBig"":0,""Seaweed"":2}","{""FishSmall"":1,""FishBig"":3,""CanSmall"":0,""CanBig"":0,""Seaweed"":2}",50,50,11.66666667,11.66666667,16.66666667,16.66666667,8.975274679,8.975274679,2,2,0,0,0,0,"{""FishSmall"":1,""FishBig"":2,""CanSmall"":0,""CanBig"":0,""Seaweed"":0}","{""FishSmall"":1,""FishBig"":2,""CanSmall"":0,""CanBig"":0,""Seaweed"":0}",16.66666667,11.66666667,0.5,1669.06,0.807692308,2,2,2,2,2,1,0,2,2,2,1,1,2,100,14,0.75,10,0,10,10,3.166666667,3.166666667,16.66666667,11.66666667,2,0,10,0
6493958,6,80,Female,2,7-Jun,1,0,trial_15,,,1,,2805.299999,,4191.5,"{""FishSmall"":1,""FishBig"":3,""CanSmall"":0,""CanBig"":0,""Seaweed"":2}","{""FishSmall"":1,""FishBig"":3,""CanSmall"":0,""CanBig"":0,""Seaweed"":2}",50,50,11.66666667,11.66666667,13.33333333,6.666666667,8.975274679,8.975274679,2,2,0,0,0,0,"{""FishSmall"":2,""FishBig"":1,""CanSmall"":0,""CanBig"":0,""Seaweed"":0}","{""FishSmall"":0,""FishBig"":2,""CanSmall"":0,""CanBig"":1,""Seaweed"":0}",13.33333333,11.66666667,0.5,1669.06,0.807692308,2,2,2,2,2,1,0,2,2,2,1,1,2,100,15,0.75,0,0,0,20,3.166666667,3.166666667,13.33333333,11.66666667,2,0,0,0
6493958,6,80,Female,2,7-Jun,1,1,trial_16,,,0,,4790.900002,,2082.700001,"{""FishSmall"":0,""FishBig"":0,""CanSmall"":3,""CanBig"":0,""Seaweed"":3}","{""FishSmall"":1,""FishBig"":4,""CanSmall"":0,""CanBig"":0,""Seaweed"":1}",0,50,-5,15,0,6.666666667,5,7.637626158,3,1,20,2.637626158,-2,50,"{""FishSmall"":0,""FishBig"":1,""CanSmall"":2,""CanBig"":0,""Seaweed"":0}","{""FishSmall"":0,""FishBig"":2,""CanSmall"":0,""CanBig"":1,""Seaweed"":0}",-5,6.666666667,0.5,1669.06,0.807692308,2,2,2,2,2,1,0,2,2,2,1,1,2,100,16,0.75,0,20,0,20,3.166666667,3.166666667,6.666666667,-5,1,0,20,0
6493958,6,80,Female,2,7-Jun,1,1,trial_17,,,0,,6490.800001,,7335.199999,"{""FishSmall"":3,""FishBig"":1,""CanSmall"":1,""CanBig"":0,""Seaweed"":1}","{""FishSmall"":4,""FishBig"":0,""CanSmall"":0,""CanBig"":0,""Seaweed"":2}",50,100,6.666666667,6.666666667,3.333333333,0,9.428090416,4.714045208,1,2,0,-4.714045208,1,50,"{""FishSmall"":2,""FishBig"":0,""CanSmall"":1,""CanBig"":0,""Seaweed"":0}","{""FishSmall"":2,""FishBig"":0,""CanSmall"":0,""CanBig"":1,""Seaweed"":0}",6.666666667,0,0.5,1669.06,0.807692308,2,2,2,2,2,1,0,2,2,2,1,1,2,100,17,0.75,-10,10,0,0,3.166666667,3.166666667,0,6.666666667,2,0,10,-10
6493958,6,80,Female,2,7-Jun,1,0,trial_18,,0,,,1733.4,2496.299999,,"{""FishSmall"":2,""FishBig"":0,""CanSmall"":2,""CanBig"":0,""Seaweed"":2}","{""FishSmall"":1,""FishBig"":1,""CanSmall"":1,""CanBig"":0,""Seaweed"":3}",50,0,0,3.333333333,6.666666667,6.666666667,8.164965809,9.428090416,2,3,3.333333333,1.263124607,1,-50,"{""FishSmall"":1,""FishBig"":1,""CanSmall"":1,""CanBig"":0,""Seaweed"":0}","{""FishSmall"":1,""FishBig"":1,""CanSmall"":1,""CanBig"":0,""Seaweed"":0}",6.666666667,3.333333333,0.5,1669.06,0.807692308,2,2,2,2,2,1,0,2,2,2,1,1,2,100,18,0.75,10,0,20,20,3.166666667,3.166666667,6.666666667,3.333333333,2,0,10,0
6493958,6,80,Female,2,7-Jun,1,0,trial_19,,,,,1901.799999,,,"{""FishSmall"":2,""FishBig"":4,""CanSmall"":0,""CanBig"":0,""Seaweed"":0}","{""FishSmall"":4,""FishBig"":0,""CanSmall"":2,""CanBig"":0,""Seaweed"":0}",0,0,16.66666667,3.333333333,16.66666667,3.333333333,4.714045208,9.428090416,0,0,-13.33333333,4.714045208,0,0,"{""FishSmall"":1,""FishBig"":2,""CanSmall"":0,""CanBig"":0,""Seaweed"":0}","{""FishSmall"":2,""FishBig"":0,""CanSmall"":1,""CanBig"":0,""Seaweed"":0}",16.66666667,3.333333333,0.5,1669.06,0.807692308,2,2,2,2,2,1,0,2,2,2,1,1,2,100,19,0.75,0,-10,0,0,3.166666667,3.166666667,16.66666667,3.333333333,0,0,0,-10
6493958,6,80,Female,2,7-Jun,1,1,trial_20,,,1,,1687,,1683.6,"{""FishSmall"":0,""FishBig"":1,""CanSmall"":0,""CanBig"":1,""Seaweed"":4}","{""FishSmall"":0,""FishBig"":0,""CanSmall"":3,""CanBig"":2,""Seaweed"":1}",0,100,0,-11.66666667,16.66666667,-13.33333333,11.54700538,6.871842709,4,1,-11.66666667,-4.675162674,-3,100,"{""FishSmall"":1,""FishBig"":2,""CanSmall"":0,""CanBig"":0,""Seaweed"":0}","{""FishSmall"":0,""FishBig"":0,""CanSmall"":2,""CanBig"":1,""Seaweed"":0}",0,-13.33333333,0.5,1669.06,0.807692308,2,2,2,2,2,1,0,2,2,2,1,1,2,100,20,0.75,0,0,0,0,3.166666667,3.166666667,-13.33333333,0,1,0,0,0
6493958,6,80,Female,2,7-Jun,1,,catch_2,1,,,3898.1,,,,"{""FishSmall"":0,""FishBig"":0,""CanSmall"":3,""CanBig"":3,""Seaweed"":0}","{""FishSmall"":0,""FishBig"":0,""CanSmall"":3,""CanBig"":3,""Seaweed"":0}",0,0,,,,,,,,,,,,,"{""FishSmall"":0,""FishBig"":0,""CanSmall"":1,""CanBig"":2,""Seaweed"":0}","{""FishSmall"":0,""FishBig"":0,""CanSmall"":1,""CanBig"":2,""Seaweed"":0}",,,0.5,1669.06,0.807692308,2,2,2,2,2,1,0,2,2,2,1,1,2,100,,0.75,,,,,,,,,,,,
6493958,6,80,Female,2,7-Jun,1,0,trial_21,,0,1,,4406.799999,1945.200001,5453,"{""FishSmall"":0,""FishBig"":0,""CanSmall"":1,""CanBig"":2,""Seaweed"":3}","{""FishSmall"":0,""FishBig"":1,""CanSmall"":0,""CanBig"":1,""Seaweed"":4}",100,50,-8.333333333,0,3.333333333,-6.666666667,8.975274679,11.54700538,3,4,8.333333333,2.571730705,1,-50,"{""FishSmall"":1,""FishBig"":1,""CanSmall"":0,""CanBig"":1,""Seaweed"":0}","{""FishSmall"":0,""FishBig"":1,""CanSmall"":0,""CanBig"":2,""Seaweed"":0}",3.333333333,0,0.5,1669.06,0.807692308,2,2,2,2,2,1,0,2,2,2,1,1,2,100,21,0.75,10,0,20,0,3.166666667,3.166666667,3.333333333,0,3,0,10,0
6493958,6,80,Female,2,7-Jun,1,1,trial_22,,,,,2739.5,,,"{""FishSmall"":3,""FishBig"":1,""CanSmall"":1,""CanBig"":0,""Seaweed"":1}","{""FishSmall"":2,""FishBig"":1,""CanSmall"":1,""CanBig"":0,""Seaweed"":2}",0,50,6.666666667,5,3.333333333,3.333333333,9.428090416,9.574271078,1,2,-1.666666667,0.146180662,1,50,"{""FishSmall"":2,""FishBig"":0,""CanSmall"":1,""CanBig"":0,""Seaweed"":0}","{""FishSmall"":2,""FishBig"":0,""CanSmall"":1,""CanBig"":0,""Seaweed"":0}",6.666666667,3.333333333,0.5,1669.06,0.807692308,2,2,2,2,2,1,0,2,2,2,1,1,2,100,22,0.75,10,0,0,0,3.166666667,3.166666667,3.333333333,6.666666667,2,0,0,10
6493958,6,80,Female,2,7-Jun,1,1,trial_23,,0,1,,1422.300001,3596,3745.6,"{""FishSmall"":1,""FishBig"":2,""CanSmall"":0,""CanBig"":0,""Seaweed"":3}","{""FishSmall"":1,""FishBig"":0,""CanSmall"":4,""CanBig"":0,""Seaweed"":1}",50,100,8.333333333,-5,6.666666667,-3.333333333,8.975274679,7.637626158,3,1,-13.33333333,-1.33764852,-2,50,"{""FishSmall"":1,""FishBig"":1,""CanSmall"":1,""CanBig"":0,""Seaweed"":0}","{""FishSmall"":1,""FishBig"":0,""CanSmall"":2,""CanBig"":0,""Seaweed"":0}",8.333333333,-3.333333333,0.5,1669.06,0.807692308,2,2,2,2,2,1,0,2,2,2,1,1,2,100,23,0.75,20,0,-10,0,3.166666667,3.166666667,-3.333333333,8.333333333,1,0,0,20
6493958,6,80,Female,2,7-Jun,1,1,trial_24,,,0,,10920.2,,1728,"{""FishSmall"":2,""FishBig"":0,""CanSmall"":4,""CanBig"":0,""Seaweed"":0}","{""FishSmall"":1,""FishBig"":0,""CanSmall"":2,""CanBig"":1,""Seaweed"":2}",0,100,-3.333333333,-5,-3.333333333,3.333333333,9.428090416,9.574271078,0,2,-1.666666667,0.146180662,2,100,"{""FishSmall"":1,""FishBig"":0,""CanSmall"":2,""CanBig"":0,""Seaweed"":0}","{""FishSmall"":1,""FishBig"":1,""CanSmall"":0,""CanBig"":1,""Seaweed"":0}",-3.333333333,3.333333333,0.5,1669.06,0.807692308,2,2,2,2,2,1,0,2,2,2,1,1,2,100,24,0.75,0,10,0,-20,3.166666667,3.166666667,3.333333333,-3.333333333,2,0,10,0
6493958,6,80,Female,2,7-Jun,1,1,trial_25,,1,1,,4086.6,3876.799999,1262.5,"{""FishSmall"":2,""FishBig"":0,""CanSmall"":3,""CanBig"":0,""Seaweed"":1}","{""FishSmall"":0,""FishBig"":0,""CanSmall"":3,""CanBig"":2,""Seaweed"":1}",50,100,-1.666666667,-11.66666667,0,-13.33333333,8.975274679,6.871842709,1,1,-10,-2.103431969,0,50,"{""FishSmall"":0,""FishBig"":1,""CanSmall"":2,""CanBig"":0,""Seaweed"":0}","{""FishSmall"":0,""FishBig"":0,""CanSmall"":2,""CanBig"":1,""Seaweed"":0}",-1.666666667,-13.33333333,0.5,1669.06,0.807692308,2,2,2,2,2,1,0,2,2,2,1,1,2,100,25,0.75,0,0,0,0,3.166666667,3.166666667,-13.33333333,-1.666666667,1,0,0,0
6493958,6,80,Female,2,7-Jun,1,0,trial_26,,1,1,,6885.299999,7477.1,4036.299999,"{""FishSmall"":3,""FishBig"":1,""CanSmall"":1,""CanBig"":0,""Seaweed"":1}","{""FishSmall"":2,""FishBig"":1,""CanSmall"":0,""CanBig"":0,""Seaweed"":3}",100,50,6.666666667,6.666666667,-3.333333333,13.33333333,9.428090416,7.453559925,1,3,0,-1.974530491,2,-50,"{""FishSmall"":0,""FishBig"":1,""CanSmall"":1,""CanBig"":1,""Seaweed"":0}","{""FishSmall"":2,""FishBig"":1,""CanSmall"":0,""CanBig"":0,""Seaweed"":0}",-3.333333333,6.666666667,0.5,1669.06,0.807692308,2,2,2,2,2,1,0,2,2,2,1,1,2,100,26,0.75,0,0,0,20,3.166666667,3.166666667,-3.333333333,6.666666667,1,0,0,0
6493958,6,80,Female,2,7-Jun,1,0,trial_27,,,0,,12388.5,,10185.5,"{""FishSmall"":3,""FishBig"":2,""CanSmall"":0,""CanBig"":0,""Seaweed"":1}","{""FishSmall"":1,""FishBig"":0,""CanSmall"":4,""CanBig"":0,""Seaweed"":1}",50,50,11.66666667,-5,3.333333333,-10,6.871842709,7.637626158,1,1,-16.66666667,0.765783449,0,0,"{""FishSmall"":2,""FishBig"":0,""CanSmall"":1,""CanBig"":0,""Seaweed"":0}","{""FishSmall"":0,""FishBig"":0,""CanSmall"":3,""CanBig"":0,""Seaweed"":0}",3.333333333,-5,0.5,1669.06,0.807692308,2,2,2,2,2,1,0,2,2,2,1,1,2,100,27,0.75,10,-10,10,0,3.166666667,3.166666667,3.333333333,-5,1,0,10,-10
6493958,6,80,Female,2,7-Jun,1,0,trial_28,,0,,,8826.400002,1785.1,,"{""FishSmall"":4,""FishBig"":1,""CanSmall"":1,""CanBig"":0,""Seaweed"":0}","{""FishSmall"":2,""FishBig"":0,""CanSmall"":1,""CanBig"":0,""Seaweed"":3}",100,0,8.333333333,1.666666667,10,3.333333333,8.975274679,6.871842709,0,3,-6.666666667,-2.103431969,3,-100,"{""FishSmall"":3,""FishBig"":0,""CanSmall"":0,""CanBig"":0,""Seaweed"":0}","{""FishSmall"":1,""FishBig"":1,""CanSmall"":0,""CanBig"":1,""Seaweed"":0}",10,1.666666667,0.5,1669.06,0.807692308,2,2,2,2,2,1,0,2,2,2,1,1,2,100,28,0.75,10,20,10,10,3.166666667,3.166666667,10,1.666666667,0,0,10,20
6493958,6,80,Female,2,7-Jun,1,1,trial_29,,,0,,3248,,1687.6,"{""FishSmall"":2,""FishBig"":0,""CanSmall"":3,""CanBig"":0,""Seaweed"":1}","{""FishSmall"":1,""FishBig"":3,""CanSmall"":0,""CanBig"":0,""Seaweed"":2}",0,100,-1.666666667,11.66666667,-10,10,8.975274679,8.975274679,1,2,13.33333333,0,1,100,"{""FishSmall"":0,""FishBig"":0,""CanSmall"":3,""CanBig"":0,""Seaweed"":0}","{""FishSmall"":0,""FishBig"":2,""CanSmall"":1,""CanBig"":0,""Seaweed"":0}",-1.666666667,10,0.5,1669.06,0.807692308,2,2,2,2,2,1,0,2,2,2,1,1,2,100,29,0.75,-10,-10,-10,20,3.166666667,3.166666667,10,-1.666666667,2,0,-10,-10
6493958,6,80,Female,2,7-Jun,1,0,trial_30,,0,,,13018.3,3082.6,,"{""FishSmall"":2,""FishBig"":1,""CanSmall"":1,""CanBig"":0,""Seaweed"":2}","{""FishSmall"":3,""FishBig"":2,""CanSmall"":0,""CanBig"":0,""Seaweed"":1}",100,0,5,11.66666667,6.666666667,0,9.574271078,6.871842709,2,1,6.666666667,-2.702428368,-1,-100,"{""FishSmall"":1,""FishBig"":1,""CanSmall"":1,""CanBig"":0,""Seaweed"":0}","{""FishSmall"":2,""FishBig"":0,""CanSmall"":0,""CanBig"":1,""Seaweed"":0}",6.666666667,11.66666667,0.5,1669.06,0.807692308,2,2,2,2,2,1,0,2,2,2,1,1,2,100,30,0.75,20,10,20,10,3.166666667,3.166666667,6.666666667,11.66666667,2,0,20,10
6495307,8,100,Female,2,9-Aug,2,1,trial_1,,,,,5744,,,"{""FishSmall"":1,""FishBig"":0,""CanSmall"":3,""CanBig"":1,""Seaweed"":1}","{""FishSmall"":1,""FishBig"":0,""CanSmall"":1,""CanBig"":1,""Seaweed"":3}",0,0,-6.666666667,-3.333333333,-3.333333333,3.333333333,9.428090416,9.428090416,1,3,3.333333333,1.78E-15,2,0,"{""FishSmall"":1,""FishBig"":0,""CanSmall"":2,""CanBig"":0,""Seaweed"":0}","{""FishSmall"":1,""FishBig"":1,""CanSmall"":0,""CanBig"":1,""Seaweed"":0}",-6.666666667,3.333333333,1,864.1,1,2,2,2,2,2,2,2,2,2,2,2,2,2,100,1,0.580645161,-10,10,0,0,0.833333333,3,3.333333333,-6.666666667,3,0,10,-10
6495307,8,100,Female,2,9-Aug,2,1,trial_2,,,0,,4224,,9427,"{""FishSmall"":2,""FishBig"":0,""CanSmall"":3,""CanBig"":0,""Seaweed"":1}","{""FishSmall"":1,""FishBig"":1,""CanSmall"":1,""CanBig"":0,""Seaweed"":3}",0,100,-1.666666667,3.333333333,-13.33333333,16.66666667,8.975274679,9.428090416,1,3,5,0.452815737,2,100,"{""FishSmall"":0,""FishBig"":0,""CanSmall"":2,""CanBig"":1,""Seaweed"":0}","{""FishSmall"":1,""FishBig"":2,""CanSmall"":0,""CanBig"":0,""Seaweed"":0}",-1.666666667,16.66666667,1,864.1,1,2,2,2,2,2,2,2,2,2,2,2,2,2,100,2,0.580645161,-20,20,0,20,0.833333333,3,16.66666667,-1.666666667,3,0,20,-20
6495307,8,100,Female,2,9-Aug,2,1,trial_3,,,,,4230,,,"{""FishSmall"":1,""FishBig"":0,""CanSmall"":2,""CanBig"":1,""Seaweed"":2}","{""FishSmall"":2,""FishBig"":1,""CanSmall"":1,""CanBig"":0,""Seaweed"":2}",50,50,-5,5,-16.66666667,6.666666667,9.574271078,9.574271078,2,2,10,0,0,0,"{""FishSmall"":0,""FishBig"":0,""CanSmall"":1,""CanBig"":2,""Seaweed"":0}","{""FishSmall"":1,""FishBig"":1,""CanSmall"":1,""CanBig"":0,""Seaweed"":0}",-5,6.666666667,1,864.1,1,2,2,2,2,2,2,2,2,2,2,2,2,2,100,3,0.580645161,-10,0,0,0,0.833333333,3,6.666666667,-5,2,0,0,-10
6495307,8,100,Female,2,9-Aug,2,0,trial_4,,,,,14572,,,"{""FishSmall"":2,""FishBig"":0,""CanSmall"":3,""CanBig"":0,""Seaweed"":1}","{""FishSmall"":1,""FishBig"":2,""CanSmall"":0,""CanBig"":0,""Seaweed"":3}",50,0,-1.666666667,8.333333333,-3.333333333,6.666666667,8.975274679,8.975274679,1,3,10,0,2,-50,"{""FishSmall"":1,""FishBig"":0,""CanSmall"":2,""CanBig"":0,""Seaweed"":0}","{""FishSmall"":1,""FishBig"":1,""CanSmall"":1,""CanBig"":0,""Seaweed"":0}",-3.333333333,8.333333333,1,864.1,1,2,2,2,2,2,2,2,2,2,2,2,2,2,100,4,0.580645161,0,0,0,0,0.833333333,3,-3.333333333,8.333333333,1,0,0,0
6495307,8,100,Female,2,9-Aug,2,1,trial_5,,0,1,,13003,12479,5500,"{""FishSmall"":3,""FishBig"":1,""CanSmall"":1,""CanBig"":0,""Seaweed"":1}","{""FishSmall"":2,""FishBig"":2,""CanSmall"":0,""CanBig"":0,""Seaweed"":2}",100,100,6.666666667,10,13.33333333,10,9.428090416,8.164965809,1,2,3.333333333,-1.263124607,1,0,"{""FishSmall"":2,""FishBig"":1,""CanSmall"":0,""CanBig"":0,""Seaweed"":0}","{""FishSmall"":0,""FishBig"":2,""CanSmall"":1,""CanBig"":0,""Seaweed"":0}",6.666666667,10,1,864.1,1,2,2,2,2,2,2,2,2,2,2,2,2,2,100,5,0.580645161,10,0,10,20,0.833333333,3,10,6.666666667,2,0,0,10
6495307,8,100,Female,2,9-Aug,2,0,trial_6,,1,0,,10725,11460,12332,"{""FishSmall"":3,""FishBig"":3,""CanSmall"":0,""CanBig"":0,""Seaweed"":0}","{""FishSmall"":3,""FishBig"":2,""CanSmall"":0,""CanBig"":0,""Seaweed"":1}",100,100,15,11.66666667,13.33333333,13.33333333,5,6.871842709,0,1,-3.333333333,1.871842709,1,0,"{""FishSmall"":2,""FishBig"":1,""CanSmall"":0,""CanBig"":0,""Seaweed"":0}","{""FishSmall"":2,""FishBig"":1,""CanSmall"":0,""CanBig"":0,""Seaweed"":0}",13.33333333,11.66666667,1,864.1,1,2,2,2,2,2,2,2,2,2,2,2,2,2,100,6,0.580645161,0,10,20,10,0.833333333,3,13.33333333,11.66666667,0,0,0,10
