,subject_ID,age_in_years,age_in_months,gender,gender_coded,age_group,age_group_coded,info_choice,condition,catch_trials,fishing_choiceL,fishing_choiceR,RT_catch,RT_info_choice,RT_fishingL,RT_fishingR,items_countL,items_countR,agency_probL,agency_probR,EV_L,EV_R,SD_L,SD_R,uncertainty_level_L,uncertainty_level_R,delta_EV,delta_SD,delta_uncertainty_level,delta_agency,items_count_flashL,items_count_flashR,wob,avg_wob_RT,percent_comprehension,q1,q2,q3,q4,q5,q6,q7,q8,q9,q10,q11,q12,q13,catch_trials_score,trial_number,prop_correct_fishing
0,3626472.0,5.0,61.0,Male,1.0,4-5,0.0,1.0,trial_1,,,0.0,,1843.39,,4537.295,"{""FishSmall"":0,""FishBig"":1,""CanSmall"":0,""CanBig"":1,""Seaweed"":4}","{""FishSmall"":0,""FishBig"":0,""CanSmall"":1,""CanBig"":3,""Seaweed"":2}",0.0,50.0,0.0,-11.666666666666666,11.547005383792516,8.975274678557506,4.0,2.0,-11.666666666666666,-2.5717307052350105,-2.0,50.0,"{""FishSmall"":1,""FishBig"":2,""CanSmall"":0,""CanBig"":0,""Seaweed"":0}","{""FishSmall"":1,""FishBig"":0,""CanSmall"":2,""CanBig"":0,""Seaweed"":0}",0.9,1713.943500025198,0.8846153846153846,2.0,2.0,2.0,2.0,2.0,1.0,0.0,2.0,2.0,2.0,2.0,2.0,2.0,100.0,1.0,0.6486486486486487
1,3626472.0,5.0,61.0,Male,1.0,4-5,0.0,0.0,trial_2,,0.0,,,3144.02,2935.17,,"{""FishSmall"":3,""FishBig"":0,""CanSmall"":2,""CanBig"":0,""Seaweed"":1}","{""FishSmall"":2,""FishBig"":3,""CanSmall"":0,""CanBig"":0,""Seaweed"":1}",0.0,50.0,1.6666666666666667,13.333333333333334,8.975274678557506,7.453559924999299,1.0,1.0,11.666666666666668,-1.5217147535582072,0.0,50.0,"{""FishSmall"":1,""FishBig"":0,""CanSmall"":2,""CanBig"":0,""Seaweed"":0}","{""FishSmall"":1,""FishBig"":2,""CanSmall"":0,""CanBig"":0,""Seaweed"":0}",0.9,1713.943500025198,0.8846153846153846,2.0,2.0,2.0,2.0,2.0,1.0,0.0,2.0,2.0,2.0,2.0,2.0,2.0,100.0,2.0,0.6486486486486487
2,3626472.0,5.0,61.0,Male,1.0,4-5,0.0,1.0,trial_3,,0.0,1.0,,3389.505,4167.92,1547.645,"{""FishSmall"":1,""FishBig"":0,""CanSmall"":3,""CanBig"":0,""Seaweed"":2}","{""FishSmall"":1,""FishBig"":4,""CanSmall"":0,""CanBig"":0,""Seaweed"":1}",100.0,100.0,-3.333333333333333,15.0,7.453559924999299,7.637626158259733,2.0,1.0,18.33333333333333,0.1840662332604346,-1.0,0.0,"{""FishSmall"":1,""FishBig"":0,""CanSmall"":2,""CanBig"":0,""Seaweed"":0}","{""FishSmall"":0,""FishBig"":3,""CanSmall"":0,""CanBig"":0,""Seaweed"":0}",0.9,1713.943500025198,0.8846153846153846,2.0,2.0,2.0,2.0,2.0,1.0,0.0,2.0,2.0,2.0,2.0,2.0,2.0,100.0,3.0,0.6486486486486487
3,3626472.0,5.0,61.0,Male,1.0,4-5,0.0,1.0,trial_4,,0.0,0.0,,4405.85,3618.805,5279.63,"{""FishSmall"":3,""FishBig"":0,""CanSmall"":1,""CanBig"":0,""Seaweed"":2}","{""FishSmall"":1,""FishBig"":0,""CanSmall"":2,""CanBig"":1,""Seaweed"":2}",100.0,100.0,3.333333333333333,-5.0,7.453559924999298,9.57427107756338,2.0,2.0,-8.333333333333334,2.120711152564083,0.0,0.0,"{""FishSmall"":2,""FishBig"":0,""CanSmall"":1,""CanBig"":0,""Seaweed"":0}","{""FishSmall"":2,""FishBig"":0,""CanSmall"":0,""CanBig"":1,""Seaweed"":0}",0.9,1713.943500025198,0.8846153846153846,2.0,2.0,2.0,2.0,2.0,1.0,0.0,2.0,2.0,2.0,2.0,2.0,2.0,100.0,4.0,0.6486486486486487
4,3626472.0,5.0,61.0,Male,1.0,4-5,0.0,1.0,trial_5,,,,,1994.035,,,"{""FishSmall"":1,""FishBig"":0,""CanSmall"":2,""CanBig"":1,""Seaweed"":2}","{""FishSmall"":1,""FishBig"":1,""CanSmall"":1,""CanBig"":0,""Seaweed"":3}",0.0,0.0,-5.0,3.333333333333333,9.57427107756338,9.428090415820634,2.0,3.0,8.333333333333334,-0.146180661742747,1.0,0.0,"{""FishSmall"":0,""FishBig"":1,""CanSmall"":1,""CanBig"":1,""Seaweed"":0}","{""FishSmall"":1,""FishBig"":2,""CanSmall"":0,""CanBig"":0,""Seaweed"":0}",0.9,1713.943500025198,0.8846153846153846,2.0,2.0,2.0,2.0,2.0,1.0,0.0,2.0,2.0,2.0,2.0,2.0,2.0,100.0,5.0,0.6486486486486487
5,3626472.0,5.0,61.0,Male,1.0,4-5,0.0,1.0,trial_6,,,0.0,,4605.07,,3127.29,"{""FishSmall"":2,""FishBig"":0,""CanSmall"":2,""CanBig"":0,""Seaweed"":2}","{""FishSmall"":2,""FishBig"":0,""CanSmall"":1,""CanBig"":0,""Seaweed"":3}",0.0,100.0,0.0,1.6666666666666667,8.16496580927726,6.871842709362768,2.0,3.0,1.6666666666666667,-1.2931230999144931,1.0,100.0,"{""FishSmall"":1,""FishBig"":1,""CanSmall"":1,""CanBig"":0,""Seaweed"":0}","{""FishSmall"":1,""FishBig"":1,""CanSmall"":1,""CanBig"":0,""Seaweed"":0}",0.9,1713.943500025198,0.8846153846153846,2.0,2.0,2.0,2.0,2.0,1.0,0.0,2.0,2.0,2.0,2.0,2.0,2.0,100.0,6.0,0.6486486486486487
6,3626472.0,5.0,61.0,Male,1.0,4-5,0.0,1.0,trial_7,,,,,2534.23,,,"{""FishSmall"":2,""FishBig"":1,""CanSmall"":0,""CanBig"":0,""Seaweed"":3}","{""FishSmall"":2,""FishBig"":0,""CanSmall"":2,""CanBig"":0,""Seaweed"":2}",0.0,0.0,6.666666666666667,0.0,7.453559924999299,8.16496580927726,3.0,2.0,-6.666666666666667,0.711405884277962,-1.0,0.0,"{""FishSmall"":1,""FishBig"":2,""CanSmall"":0,""CanBig"":0,""Seaweed"":0}","{""FishSmall"":2,""FishBig"":0,""CanSmall"":1,""CanBig"":0,""Seaweed"":0}",0.9,1713.943500025198,0.8846153846153846,2.0,2.0,2.0,2.0,2.0,1.0,0.0,2.0,2.0,2.0,2.0,2.0,2.0,100.0,7.0,0.6486486486486487
7,3626472.0,5.0,61.0,Male,1.0,4-5,0.0,1.0,trial_8,,,,,3549.1,,,"{""FishSmall"":3,""FishBig"":1,""CanSmall"":0,""CanBig"":0,""Seaweed"":2}","{""FishSmall"":1,""FishBig"":0,""CanSmall"":3,""CanBig"":1,""Seaweed"":1}",0.0,0.0,8.333333333333334,-6.666666666666667,6.871842709362768,9.428090415820632,2.0,1.0,-15.0,2.5562477064578646,-1.0,0.0,"{""FishSmall"":2,""FishBig"":0,""CanSmall"":0,""CanBig"":1,""Seaweed"":0}","{""FishSmall"":1,""FishBig"":0,""CanSmall"":2,""CanBig"":0,""Seaweed"":0}",0.9,1713.943500025198,0.8846153846153846,2.0,2.0,2.0,2.0,2.0,1.0,0.0,2.0,2.0,2.0,2.0,2.0,2.0,100.0,8.0,0.6486486486486487
8,3626472.0,5.0,61.0,Male,1.0,4-5,0.0,1.0,trial_9,,0.0,,,12414.065,7867.525,,"{""FishSmall"":2,""FishBig"":0,""CanSmall"":1,""CanBig"":0,""Seaweed"":3}","{""FishSmall"":3,""FishBig"":1,""CanSmall"":1,""CanBig"":0,""Seaweed"":1}",50.0,50.0,1.6666666666666667,6.666666666666667,6.871842709362768,9.428090415820634,3.0,1.0,5.0,2.5562477064578664,-2.0,0.0,"{""FishSmall"":1,""FishBig"":1,""CanSmall"":1,""CanBig"":0,""Seaweed"":0}","{""FishSmall"":1,""FishBig"":2,""CanSmall"":0,""CanBig"":0,""Seaweed"":0}",0.9,1713.943500025198,0.8846153846153846,2.0,2.0,2.0,2.0,2.0,1.0,0.0,2.0,2.0,2.0,2.0,2.0,2.0,100.0,9.0,0.6486486486486487
9,3626472.0,5.0,61.0,Male,1.0,4-5,0.0,1.0,trial_10,,0.0,,,4983.335,3938.82,,"{""FishSmall"":3,""FishBig"":0,""CanSmall"":0,""CanBig"":0,""Seaweed"":3}","{""FishSmall"":4,""FishBig"":2,""CanSmall"":0,""CanBig"":0,""Seaweed"":0}",100.0,0.0,5.0,13.333333333333334,5.0,4.714045207910316,3.0,0.0,8.333333333333334,-0.2859547920896839,-3.0,-100.0,"{""FishSmall"":3,""FishBig"":0,""CanSmall"":0,""CanBig"":0,""Seaweed"":0}","{""FishSmall"":2,""FishBig"":1,""CanSmall"":0,""CanBig"":0,""Seaweed"":0}",0.9,1713.943500025198,0.8846153846153846,2.0,2.0,2.0,2.0,2.0,1.0,0.0,2.0,2.0,2.0,2.0,2.0,2.0,100.0,10.0,0.6486486486486487
10,3626472.0,5.0,61.0,Male,1.0,4-5,0.0,,catch_1,0.0,,,8022.175,,,,"{""FishSmall"":4,""FishBig"":2,""CanSmall"":0,""CanBig"":0,""Seaweed"":0}","{""FishSmall"":4,""FishBig"":2,""CanSmall"":0,""CanBig"":0,""Seaweed"":0}",0.0,0.0,,,,,,,,,,,"{""FishSmall"":2,""FishBig"":1,""CanSmall"":0,""CanBig"":0,""Seaweed"":0}","{""FishSmall"":2,""FishBig"":1,""CanSmall"":0,""CanBig"":0,""Seaweed"":0}",0.9,1713.943500025198,0.8846153846153846,2.0,2.0,2.0,2.0,2.0,1.0,0.0,2.0,2.0,2.0,2.0,2.0,2.0,100.0,,0.6486486486486487
11,3626472.0,5.0,61.0,Male,1.0,4-5,0.0,0.0,trial_11,,0.0,0.0,,6277.15,2522.29,4925.165,"{""FishSmall"":1,""FishBig"":0,""CanSmall"":3,""CanBig"":1,""Seaweed"":1}","{""FishSmall"":1,""FishBig"":0,""CanSmall"":2,""CanBig"":1,""Seaweed"":2}",0.0,100.0,-6.666666666666667,-5.0,9.428090415820632,9.57427107756338,1.0,2.0,1.666666666666667,0.1461806617427488,1.0,100.0,"{""FishSmall"":2,""FishBig"":0,""CanSmall"":1,""CanBig"":0,""Seaweed"":0}","{""FishSmall"":0,""FishBig"":0,""CanSmall"":2,""CanBig"":1,""Seaweed"":0}",0.9,1713.943500025198,0.8846153846153846,2.0,2.0,2.0,2.0,2.0,1.0,0.0,2.0,2.0,2.0,2.0,2.0,2.0,100.0,11.0,0.6486486486486487
12,3626472.0,5.0,61.0,Male,1.0,4-5,0.0,0.0,trial_12,,,0.0,,7044.405,,3561.835,"{""FishSmall"":2,""FishBig"":0,""CanSmall"":1,""CanBig"":0,""Seaweed"":3}","{""FishSmall"":1,""FishBig"":0,""CanSmall"":2,""CanBig"":1,""Seaweed"":2}",50.0,50.0,1.6666666666666667,-5.0,6.871842709362768,9.57427107756338,3.0,2.0,-6.666666666666667,2.7024283682006134,-1.0,0.0,"{""FishSmall"":1,""FishBig"":0,""CanSmall"":2,""CanBig"":0,""Seaweed"":0}","{""FishSmall"":3,""FishBig"":0,""CanSmall"":0,""CanBig"":0,""Seaweed"":0}",0.9,1713.943500025198,0.8846153846153846,2.0,2.0,2.0,2.0,2.0,1.0,0.0,2.0,2.0,2.0,2.0,2.0,2.0,100.0,12.0,0.6486486486486487
13,3626472.0,5.0,61.0,Male,1.0,4-5,0.0,1.0,trial_13,,,,,6226.02,,,"{""FishSmall"":1,""FishBig"":0,""CanSmall"":1,""CanBig"":1,""Seaweed"":3}","{""FishSmall"":2,""FishBig"":1,""CanSmall"":1,""CanBig"":0,""Seaweed"":2}",0.0,0.0,-3.333333333333333,5.0,9.428090415820634,9.57427107756338,3.0,2.0,8.333333333333334,0.146180661742747,-1.0,0.0,"{""FishSmall"":1,""FishBig"":1,""CanSmall"":0,""CanBig"":1,""Seaweed"":0}","{""FishSmall"":1,""FishBig"":1,""CanSmall"":1,""CanBig"":0,""Seaweed"":0}",0.9,1713.943500025198,0.8846153846153846,2.0,2.0,2.0,2.0,2.0,1.0,0.0,2.0,2.0,2.0,2.0,2.0,2.0,100.0,13.0,0.6486486486486487
14,3626472.0,5.0,61.0,Male,1.0,4-5,0.0,1.0,trial_14,,,,,5222.23,,,"{""FishSmall"":0,""FishBig"":0,""CanSmall"":4,""CanBig"":2,""Seaweed"":0}","{""FishSmall"":1,""FishBig"":0,""CanSmall"":1,""CanBig"":1,""Seaweed"":3}",0.0,0.0,-13.333333333333334,-3.333333333333333,4.714045207910316,9.428090415820634,0.0,3.0,10.0,4.714045207910318,3.0,0.0,"{""FishSmall"":0,""FishBig"":0,""CanSmall"":2,""CanBig"":1,""Seaweed"":0}","{""FishSmall"":2,""FishBig"":0,""CanSmall"":0,""CanBig"":1,""Seaweed"":0}",0.9,1713.943500025198,0.8846153846153846,2.0,2.0,2.0,2.0,2.0,1.0,0.0,2.0,2.0,2.0,2.0,2.0,2.0,100.0,14.0,0.6486486486486487
15,3626472.0,5.0,61.0,Male,1.0,4-5,0.0,0.0,trial_15,,0.0,,,3974.095,11211.13,,"{""FishSmall"":2,""FishBig"":2,""CanSmall"":0,""CanBig"":0,""Seaweed"":2}","{""FishSmall"":1,""FishBig"":0,""CanSmall"":1,""CanBig"":1,""Seaweed"":3}",50.0,0.0,10.0,-3.333333333333333,8.16496580927726,9.428090415820634,2.0,3.0,-13.333333333333334,1.2631246065433732,1.0,-50.0,"{""FishSmall"":1,""FishBig"":0,""CanSmall"":1,""CanBig"":1,""Seaweed"":0}","{""FishSmall"":1,""FishBig"":0,""CanSmall"":0,""CanBig"":2,""Seaweed"":0}",0.9,1713.943500025198,0.8846153846153846,2.0,2.0,2.0,2.0,2.0,1.0,0.0,2.0,2.0,2.0,2.0,2.0,2.0,100.0,15.0,0.6486486486486487
16,3626472.0,5.0,61.0,Male,1.0,4-5,0.0,0.0,trial_16,,0.0,0.0,,7362.645,1842.39,3221.63,"{""FishSmall"":1,""FishBig"":0,""CanSmall"":1,""CanBig"":1,""Seaweed"":3}","{""FishSmall"":1,""FishBig"":0,""CanSmall"":3,""CanBig"":1,""Seaweed"":1}",100.0,50.0,-3.333333333333333,-6.666666666666667,9.428090415820634,9.428090415820632,3.0,1.0,-3.333333333333333,-1.7763568394002505e-15,-2.0,-50.0,"{""FishSmall"":1,""FishBig"":0,""CanSmall"":1,""CanBig"":1,""Seaweed"":0}","{""FishSmall"":1,""FishBig"":0,""CanSmall"":2,""CanBig"":0,""Seaweed"":0}",0.9,1713.943500025198,0.8846153846153846,2.0,2.0,2.0,2.0,2.0,1.0,0.0,2.0,2.0,2.0,2.0,2.0,2.0,100.0,16.0,0.6486486486486487
17,3626472.0,5.0,61.0,Male,1.0,4-5,0.0,1.0,trial_17,,0.0,,,1784.885,3840.1,,"{""FishSmall"":2,""FishBig"":3,""CanSmall"":0,""CanBig"":0,""Seaweed"":1}","{""FishSmall"":3,""FishBig"":0,""CanSmall"":0,""CanBig"":0,""Seaweed"":3}",100.0,0.0,13.333333333333334,5.0,7.453559924999299,5.0,1.0,3.0,-8.333333333333334,-2.4535599249992988,2.0,-100.0,"{""FishSmall"":1,""FishBig"":2,""CanSmall"":0,""CanBig"":0,""Seaweed"":0}","{""FishSmall"":2,""FishBig"":1,""CanSmall"":0,""CanBig"":0,""Seaweed"":0}",0.9,1713.943500025198,0.8846153846153846,2.0,2.0,2.0,2.0,2.0,1.0,0.0,2.0,2.0,2.0,2.0,2.0,2.0,100.0,17.0,0.6486486486486487
18,3626472.0,5.0,61.0,Male,1.0,4-5,0.0,1.0,trial_18,,0.0,0.0,,3042.67,2130.0,1918.925,"{""FishSmall"":1,""FishBig"":0,""CanSmall"":4,""CanBig"":1,""Seaweed"":0}","{""FishSmall"":1,""FishBig"":0,""CanSmall"":1,""CanBig"":1,""Seaweed"":3}",50.0,100.0,-8.333333333333334,-3.333333333333333,8.975274678557506,9.428090415820634,0.0,3.0,5.0,0.452815737263128,3.0,50.0,"{""FishSmall"":1,""FishBig"":0,""CanSmall"":2,""CanBig"":0,""Seaweed"":0}","{""FishSmall"":2,""FishBig"":0,""CanSmall"":1,""CanBig"":0,""Seaweed"":0}",0.9,1713.943500025198,0.8846153846153846,2.0,2.0,2.0,2.0,2.0,1.0,0.0,2.0,2.0,2.0,2.0,2.0,2.0,100.0,18.0,0.6486486486486487
19,3626472.0,5.0,61.0,Male,1.0,4-5,0.0,1.0,trial_19,,0.0,,,1578.68,3572.13,,"{""FishSmall"":2,""FishBig"":2,""CanSmall"":0,""CanBig"":0,""Seaweed"":2}","{""FishSmall"":2,""FishBig"":2,""CanSmall"":0,""CanBig"":0,""Seaweed"":2}",50.0,0.0,10.0,10.0,8.16496580927726,8.16496580927726,2.0,2.0,0.0,0.0,0.0,-50.0,"{""FishSmall"":1,""FishBig"":1,""CanSmall"":0,""CanBig"":1,""Seaweed"":0}","{""FishSmall"":1,""FishBig"":1,""CanSmall"":1,""CanBig"":0,""Seaweed"":0}",0.9,1713.943500025198,0.8846153846153846,2.0,2.0,2.0,2.0,2.0,1.0,0.0,2.0,2.0,2.0,2.0,2.0,2.0,100.0,19.0,0.6486486486486487
20,3626472.0,5.0,61.0,Male,1.0,4-5,0.0,1.0,trial_20,,,0.0,,2512.745,,4040.655,"{""FishSmall"":1,""FishBig"":0,""CanSmall"":5,""CanBig"":0,""Seaweed"":0}","{""FishSmall"":1,""FishBig"":0,""CanSmall"":2,""CanBig"":1,""Seaweed"":2}",0.0,100.0,-6.666666666666667,-5.0,7.453559924999298,9.57427107756338,0.0,2.0,1.666666666666667,2.120711152564083,2.0,100.0,"{""FishSmall"":1,""FishBig"":0,""CanSmall"":2,""CanBig"":0,""Seaweed"":0}","{""FishSmall"":2,""FishBig"":0,""CanSmall"":1,""CanBig"":0,""Seaweed"":0}",0.9,1713.943500025198,0.8846153846153846,2.0,2.0,2.0,2.0,2.0,1.0,0.0,2.0,2.0,2.0,2.0,2.0,2.0,100.0,20.0,0.6486486486486487
21,3626472.0,5.0,61.0,Male,1.0,4-5,0.0,,catch_2,1.0,,,4445.635,,,,"{""FishSmall"":0,""FishBig"":0,""CanSmall"":3,""CanBig"":3,""Seaweed"":0}","{""FishSmall"":0,""FishBig"":0,""CanSmall"":3,""CanBig"":3,""Seaweed"":0}",0.0,0.0,,,,,,,,,,,"{""FishSmall"":0,""FishBig"":0,""CanSmall"":1,""CanBig"":2,""Seaweed"":0}","{""FishSmall"":0,""FishBig"":0,""CanSmall"":2,""CanBig"":1,""Seaweed"":0}",0.9,1713.943500025198,0.8846153846153846,2.0,2.0,2.0,2.0,2.0,1.0,0.0,2.0,2.0,2.0,2.0,2.0,2.0,100.0,,0.6486486486486487
22,3626472.0,5.0,61.0,Male,1.0,4-5,0.0,1.0,trial_21,,0.0,0.0,,5011.705,21074.19,3113296.03,"{""FishSmall"":0,""FishBig"":0,""CanSmall"":4,""CanBig"":1,""Seaweed"":1}","{""FishSmall"":1,""FishBig"":0,""CanSmall"":1,""CanBig"":1,""Seaweed"":3}",100.0,100.0,-10.0,-3.333333333333333,5.773502691896258,9.428090415820634,1.0,3.0,6.666666666666666,3.654587723924376,2.0,0.0,"{""FishSmall"":0,""FishBig"":0,""CanSmall"":2,""CanBig"":1,""Seaweed"":0}","{""FishSmall"":0,""FishBig"":1,""CanSmall"":1,""CanBig"":1,""Seaweed"":0}",0.9,1713.943500025198,0.8846153846153846,2.0,2.0,2.0,2.0,2.0,1.0,0.0,2.0,2.0,2.0,2.0,2.0,2.0,100.0,21.0,0.6486486486486487
23,3626472.0,5.0,61.0,Male,1.0,4-5,0.0,0.0,trial_22,,,,,10683.19,,,"{""FishSmall"":3,""FishBig"":1,""CanSmall"":0,""CanBig"":0,""Seaweed"":2}","{""FishSmall"":2,""FishBig"":0,""CanSmall"":4,""CanBig"":0,""Seaweed"":0}",0.0,0.0,8.333333333333334,-3.333333333333333,6.871842709362768,9.428090415820634,2.0,0.0,-11.666666666666668,2.5562477064578664,-2.0,0.0,"{""FishSmall"":2,""FishBig"":1,""CanSmall"":0,""CanBig"":0,""Seaweed"":0}","{""FishSmall"":1,""FishBig"":0,""CanSmall"":2,""CanBig"":0,""Seaweed"":0}",0.9,1713.943500025198,0.8846153846153846,2.0,2.0,2.0,2.0,2.0,1.0,0.0,2.0,2.0,2.0,2.0,2.0,2.0,100.0,22.0,0.6486486486486487
24,3626472.0,5.0,61.0,Male,1.0,4-5,0.0,1.0,trial_23,,0.0,0.0,,5439.735,2434.28,9567.575,"{""FishSmall"":2,""FishBig"":1,""CanSmall"":1,""CanBig"":0,""Seaweed"":2}","{""FishSmall"":1,""FishBig"":0,""CanSmall"":2,""CanBig"":1,""Seaweed"":2}",50.0,100.0,5.0,-5.0,9.57427107756338,9.57427107756338,2.0,2.0,-10.0,0.0,0.0,50.0,"{""FishSmall"":1,""FishBig"":1,""CanSmall"":0,""CanBig"":1,""Seaweed"":0}","{""FishSmall"":1,""FishBig"":1,""CanSmall"":1,""CanBig"":0,""Seaweed"":0}",0.9,1713.943500025198,0.8846153846153846,2.0,2.0,2.0,2.0,2.0,1.0,0.0,2.0,2.0,2.0,2.0,2.0,2.0,100.0,23.0,0.6486486486486487
25,3626472.0,5.0,61.0,Male,1.0,4-5,0.0,1.0,trial_24,,0.0,0.0,,5648.93,5416.965,1502.41,"{""FishSmall"":3,""FishBig"":1,""CanSmall"":0,""CanBig"":0,""Seaweed"":2}","{""FishSmall"":1,""FishBig"":0,""CanSmall"":2,""CanBig"":1,""Seaweed"":2}",50.0,100.0,8.333333333333334,-5.0,6.871842709362768,9.57427107756338,2.0,2.0,-13.333333333333334,2.7024283682006134,0.0,50.0,"{""FishSmall"":1,""FishBig"":0,""CanSmall"":2,""CanBig"":0,""Seaweed"":0}","{""FishSmall"":2,""FishBig"":0,""CanSmall"":0,""CanBig"":1,""Seaweed"":0}",0.9,1713.943500025198,0.8846153846153846,2.0,2.0,2.0,2.0,2.0,1.0,0.0,2.0,2.0,2.0,2.0,2.0,2.0,100.0,24.0,0.6486486486486487
26,3626472.0,5.0,61.0,Male,1.0,4-5,0.0,1.0,trial_25,,,1.0,,2385.545,,2544.365,"{""FishSmall"":0,""FishBig"":0,""CanSmall"":1,""CanBig"":3,""Seaweed"":2}","{""FishSmall"":0,""FishBig"":0,""CanSmall"":2,""CanBig"":3,""Seaweed"":1}",0.0,100.0,-11.666666666666666,-13.333333333333334,8.975274678557506,7.453559924999299,2.0,1.0,-1.666666666666668,-1.5217147535582072,-1.0,100.0,"{""FishSmall"":1,""FishBig"":0,""CanSmall"":0,""CanBig"":2,""Seaweed"":0}","{""FishSmall"":0,""FishBig"":0,""CanSmall"":1,""CanBig"":2,""Seaweed"":0}",0.9,1713.943500025198,0.8846153846153846,2.0,2.0,2.0,2.0,2.0,1.0,0.0,2.0,2.0,2.0,2.0,2.0,2.0,100.0,25.0,0.6486486486486487
27,3626472.0,5.0,61.0,Male,1.0,4-5,0.0,1.0,trial_26,,1.0,0.0,,5445.6,3952.695,3495.555,"{""FishSmall"":0,""FishBig"":0,""CanSmall"":2,""CanBig"":3,""Seaweed"":1}","{""FishSmall"":2,""FishBig"":1,""CanSmall"":1,""CanBig"":0,""Seaweed"":2}",0.0,50.0,-13.333333333333334,5.0,7.453559924999299,9.57427107756338,1.0,2.0,18.333333333333336,2.1207111525640823,1.0,50.0,"{""FishSmall"":0,""FishBig"":0,""CanSmall"":1,""CanBig"":2,""Seaweed"":0}","{""FishSmall"":0,""FishBig"":1,""CanSmall"":1,""CanBig"":1,""Seaweed"":0}",0.9,1713.943500025198,0.8846153846153846,2.0,2.0,2.0,2.0,2.0,1.0,0.0,2.0,2.0,2.0,2.0,2.0,2.0,100.0,26.0,0.6486486486486487
28,3626472.0,5.0,61.0,Male,1.0,4-5,0.0,1.0,trial_27,,1.0,0.0,,12992.16,2012.865,2081.415,"{""FishSmall"":1,""FishBig"":0,""CanSmall"":3,""CanBig"":0,""Seaweed"":2}","{""FishSmall"":2,""FishBig"":2,""CanSmall"":0,""CanBig"":0,""Seaweed"":2}",50.0,100.0,-3.333333333333333,10.0,7.453559924999299,8.16496580927726,2.0,2.0,13.333333333333334,0.711405884277962,0.0,50.0,"{""FishSmall"":0,""FishBig"":0,""CanSmall"":3,""CanBig"":0,""Seaweed"":0}","{""FishSmall"":1,""FishBig"":1,""CanSmall"":0,""CanBig"":1,""Seaweed"":0}",0.9,1713.943500025198,0.8846153846153846,2.0,2.0,2.0,2.0,2.0,1.0,0.0,2.0,2.0,2.0,2.0,2.0,2.0,100.0,27.0,0.6486486486486487
29,3626472.0,5.0,61.0,Male,1.0,4-5,0.0,0.0,trial_28,,0.0,0.0,,1133.25,2316.315,3111.395,"{""FishSmall"":2,""FishBig"":2,""CanSmall"":0,""CanBig"":0,""Seaweed"":2}","{""FishSmall"":3,""FishBig"":1,""CanSmall"":1,""CanBig"":0,""Seaweed"":1}",100.0,50.0,10.0,6.666666666666667,8.16496580927726,9.428090415820634,2.0,1.0,-3.333333333333333,1.2631246065433732,-1.0,-50.0,"{""FishSmall"":2,""FishBig"":1,""CanSmall"":0,""CanBig"":0,""Seaweed"":0}","{""FishSmall"":2,""FishBig"":0,""CanSmall"":1,""CanBig"":0,""Seaweed"":0}",0.9,1713.943500025198,0.8846153846153846,2.0,2.0,2.0,2.0,2.0,1.0,0.0,2.0,2.0,2.0,2.0,2.0,2.0,100.0,28.0,0.6486486486486487
30,3626472.0,5.0,61.0,Male,1.0,4-5,0.0,0.0,trial_29,,0.0,0.0,,4338.905,3958.775,8618.935,"{""FishSmall"":2,""FishBig"":1,""CanSmall"":0,""CanBig"":0,""Seaweed"":3}","{""FishSmall"":2,""FishBig"":0,""CanSmall"":1,""CanBig"":0,""Seaweed"":3}",50.0,50.0,6.666666666666667,1.6666666666666667,7.453559924999299,6.871842709362768,3.0,3.0,-5.0,-0.5817172156365311,0.0,0.0,"{""FishSmall"":2,""FishBig"":1,""CanSmall"":0,""CanBig"":0,""Seaweed"":0}","{""FishSmall"":2,""FishBig"":0,""CanSmall"":1,""CanBig"":0,""Seaweed"":0}",0.9,1713.943500025198,0.8846153846153846,2.0,2.0,2.0,2.0,2.0,1.0,0.0,2.0,2.0,2.0,2.0,2.0,2.0,100.0,29.0,0.6486486486486487
31,3626472.0,5.0,61.0,Male,1.0,4-5,0.0,1.0,trial_30,,1.0,0.0,,2609.465,1718.43,2018.395,"{""FishSmall"":0,""FishBig"":0,""CanSmall"":3,""CanBig"":3,""Seaweed"":0}","{""FishSmall"":4,""FishBig"":0,""CanSmall"":1,""CanBig"":0,""Seaweed"":1}",0.0,50.0,-15.0,5.0,5.0,7.637626158259733,0.0,1.0,20.0,2.6376261582597333,1.0,50.0,"{""FishSmall"":0,""FishBig"":0,""CanSmall"":1,""CanBig"":2,""Seaweed"":0}","{""FishSmall"":2,""FishBig"":0,""CanSmall"":1,""CanBig"":0,""Seaweed"":0}",0.9,1713.943500025198,0.8846153846153846,2.0,2.0,2.0,2.0,2.0,1.0,0.0,2.0,2.0,2.0,2.0,2.0,2.0,100.0,30.0,0.6486486486486487
32,3627213.0,5.0,63.0,Male,1.0,4-5,0.0,0.0,trial_1,,,,,5004.34,,,"{""FishSmall"":0,""FishBig"":1,""CanSmall"":0,""CanBig"":1,""Seaweed"":4}","{""FishSmall"":0,""FishBig"":0,""CanSmall"":2,""CanBig"":3,""Seaweed"":1}",0.0,50.0,0.0,-13.333333333333334,11.547005383792516,7.453559924999299,4.0,1.0,-13.333333333333334,-4.093445458793218,-3.0,50.0,"{""FishSmall"":0,""FishBig"":0,""CanSmall"":0,""CanBig"":3,""Seaweed"":0}","{""FishSmall"":0,""FishBig"":0,""CanSmall"":1,""CanBig"":2,""Seaweed"":0}",1.0,2425.960000001942,0.9615384615384616,2.0,2.0,2.0,2.0,2.0,2.0,2.0,1.0,2.0,2.0,2.0,2.0,2.0,100.0,1.0,0.5952380952380952
33,3627213.0,5.0,63.0,Male,1.0,4-5,0.0,0.0,trial_2,,0.0,0.0,,3470.93,2515.795,8218.3,"{""FishSmall"":2,""FishBig"":2,""CanSmall"":0,""CanBig"":0,""Seaweed"":2}","{""FishSmall"":1,""FishBig"":3,""CanSmall"":0,""CanBig"":0,""Seaweed"":2}",100.0,100.0,10.0,11.666666666666666,8.16496580927726,8.975274678557506,2.0,2.0,1.666666666666666,0.8103088692802451,0.0,0.0,"{""FishSmall"":2,""FishBig"":1,""CanSmall"":0,""CanBig"":0,""Seaweed"":0}","{""FishSmall"":1,""FishBig"":2,""CanSmall"":0,""CanBig"":0,""Seaweed"":0}",1.0,2425.960000001942,0.9615384615384616,2.0,2.0,2.0,2.0,2.0,2.0,2.0,1.0,2.0,2.0,2.0,2.0,2.0,100.0,2.0,0.5952380952380952
34,3627213.0,5.0,63.0,Male,1.0,4-5,0.0,0.0,trial_3,,0.0,0.0,,5753.73,1779.085,11225.455,"{""FishSmall"":1,""FishBig"":1,""CanSmall"":1,""CanBig"":0,""Seaweed"":3}","{""FishSmall"":1,""FishBig"":2,""CanSmall"":0,""CanBig"":0,""Seaweed"":3}",50.0,50.0,3.333333333333333,8.333333333333334,9.428090415820634,8.975274678557506,3.0,3.0,5.0,-0.452815737263128,0.0,0.0,"{""FishSmall"":2,""FishBig"":1,""CanSmall"":0,""CanBig"":0,""Seaweed"":0}","{""FishSmall"":0,""FishBig"":2,""CanSmall"":1,""CanBig"":0,""Seaweed"":0}",1.0,2425.960000001942,0.9615384615384616,2.0,2.0,2.0,2.0,2.0,2.0,2.0,1.0,2.0,2.0,2.0,2.0,2.0,100.0,3.0,0.5952380952380952
35,3627213.0,5.0,63.0,Male,1.0,4-5,0.0,0.0,trial_4,,1.0,0.0,,5072.26,13236.985,18432.055,"{""FishSmall"":1,""FishBig"":0,""CanSmall"":3,""CanBig"":0,""Seaweed"":2}","{""FishSmall"":1,""FishBig"":0,""CanSmall"":3,""CanBig"":1,""Seaweed"":1}",50.0,50.0,-3.333333333333333,-6.666666666666667,7.453559924999299,9.428090415820632,2.0,1.0,-3.333333333333333,1.9745304908213333,-1.0,0.0,"{""FishSmall"":2,""FishBig"":0,""CanSmall"":1,""CanBig"":0,""Seaweed"":0}","{""FishSmall"":1,""FishBig"":0,""CanSmall"":1,""CanBig"":1,""Seaweed"":0}",1.0,2425.960000001942,0.9615384615384616,2.0,2.0,2.0,2.0,2.0,2.0,2.0,1.0,2.0,2.0,2.0,2.0,2.0,100.0,4.0,0.5952380952380952
36,3627213.0,5.0,63.0,Male,1.0,4-5,0.0,1.0,trial_5,,1.0,0.0,,5181.33,9256.415,7572.995,"{""FishSmall"":4,""FishBig"":0,""CanSmall"":2,""CanBig"":0,""Seaweed"":0}","{""FishSmall"":2,""FishBig"":1,""CanSmall"":1,""CanBig"":0,""Seaweed"":2}",50.0,50.0,3.333333333333333,5.0,9.428090415820634,9.57427107756338,0.0,2.0,1.6666666666666663,0.146180661742747,2.0,0.0,"{""FishSmall"":2,""FishBig"":0,""CanSmall"":1,""CanBig"":0,""Seaweed"":0}","{""FishSmall"":1,""FishBig"":1,""CanSmall"":1,""CanBig"":0,""Seaweed"":0}",1.0,2425.960000001942,0.9615384615384616,2.0,2.0,2.0,2.0,2.0,2.0,2.0,1.0,2.0,2.0,2.0,2.0,2.0,100.0,5.0,0.5952380952380952
37,3627213.0,5.0,63.0,Male,1.0,4-5,0.0,1.0,trial_6,,,0.0,,6360.285,,11695.755,"{""FishSmall"":1,""FishBig"":0,""CanSmall"":3,""CanBig"":1,""Seaweed"":1}","{""FishSmall"":3,""FishBig"":1,""CanSmall"":1,""CanBig"":0,""Seaweed"":1}",50.0,50.0,-6.666666666666667,6.666666666666667,9.428090415820632,9.428090415820634,1.0,1.0,13.333333333333334,1.7763568394002505e-15,0.0,0.0,"{""FishSmall"":0,""FishBig"":1,""CanSmall"":2,""CanBig"":0,""Seaweed"":0}","{""FishSmall"":1,""FishBig"":1,""CanSmall"":1,""CanBig"":0,""Seaweed"":0}",1.0,2425.960000001942,0.9615384615384616,2.0,2.0,2.0,2.0,2.0,2.0,2.0,1.0,2.0,2.0,2.0,2.0,2.0,100.0,6.0,0.5952380952380952
38,3627213.0,5.0,63.0,Male,1.0,4-5,0.0,1.0,trial_7,,0.0,,,4631.635,2455.025,,"{""FishSmall"":0,""FishBig"":0,""CanSmall"":3,""CanBig"":1,""Seaweed"":2}","{""FishSmall"":2,""FishBig"":1,""CanSmall"":0,""CanBig"":0,""Seaweed"":3}",100.0,0.0,-8.333333333333334,6.666666666666667,6.871842709362768,7.453559924999299,2.0,3.0,15.0,0.5817172156365311,1.0,-100.0,"{""FishSmall"":0,""FishBig"":0,""CanSmall"":2,""CanBig"":1,""Seaweed"":0}","{""FishSmall"":1,""FishBig"":1,""CanSmall"":1,""CanBig"":0,""Seaweed"":0}",1.0,2425.960000001942,0.9615384615384616,2.0,2.0,2.0,2.0,2.0,2.0,2.0,1.0,2.0,2.0,2.0,2.0,2.0,100.0,7.0,0.5952380952380952
39,3627213.0,5.0,63.0,Male,1.0,4-5,0.0,0.0,trial_8,,,1.0,,5537.535,,2175.44,"{""FishSmall"":0,""FishBig"":0,""CanSmall"":2,""CanBig"":3,""Seaweed"":1}","{""FishSmall"":1,""FishBig"":3,""CanSmall"":0,""CanBig"":0,""Seaweed"":2}",0.0,100.0,-13.333333333333334,11.666666666666666,7.453559924999299,8.975274678557506,1.0,2.0,25.0,1.5217147535582072,1.0,100.0,"{""FishSmall"":0,""FishBig"":0,""CanSmall"":1,""CanBig"":2,""Seaweed"":0}","{""FishSmall"":0,""FishBig"":2,""CanSmall"":0,""CanBig"":1,""Seaweed"":0}",1.0,2425.960000001942,0.9615384615384616,2.0,2.0,2.0,2.0,2.0,2.0,2.0,1.0,2.0,2.0,2.0,2.0,2.0,100.0,8.0,0.5952380952380952
40,3627213.0,5.0,63.0,Male,1.0,4-5,0.0,1.0,trial_9,,0.0,0.0,,4127.27,2486.175,7896.405,"{""FishSmall"":0,""FishBig"":0,""CanSmall"":2,""CanBig"":2,""Seaweed"":2}","{""FishSmall"":3,""FishBig"":1,""CanSmall"":0,""CanBig"":0,""Seaweed"":2}",0.0,100.0,-10.0,8.333333333333334,8.16496580927726,6.871842709362768,2.0,2.0,18.333333333333336,-1.2931230999144931,0.0,100.0,"{""FishSmall"":0,""FishBig"":0,""CanSmall"":1,""CanBig"":2,""Seaweed"":0}","{""FishSmall"":1,""FishBig"":1,""CanSmall"":1,""CanBig"":0,""Seaweed"":0}",1.0,2425.960000001942,0.9615384615384616,2.0,2.0,2.0,2.0,2.0,2.0,2.0,1.0,2.0,2.0,2.0,2.0,2.0,100.0,9.0,0.5952380952380952
41,3627213.0,5.0,63.0,Male,1.0,4-5,0.0,0.0,trial_10,,0.0,0.0,,4405.3,8654.875,2039.99,"{""FishSmall"":3,""FishBig"":0,""CanSmall"":2,""CanBig"":0,""Seaweed"":1}","{""FishSmall"":3,""FishBig"":1,""CanSmall"":0,""CanBig"":0,""Seaweed"":2}",100.0,0.0,1.6666666666666667,8.333333333333334,8.975274678557506,6.871842709362768,1.0,2.0,6.666666666666667,-2.1034319691947383,1.0,-100.0,"{""FishSmall"":2,""FishBig"":0,""CanSmall"":1,""CanBig"":0,""Seaweed"":0}","{""FishSmall"":3,""FishBig"":0,""CanSmall"":0,""CanBig"":0,""Seaweed"":0}",1.0,2425.960000001942,0.9615384615384616,2.0,2.0,2.0,2.0,2.0,2.0,2.0,1.0,2.0,2.0,2.0,2.0,2.0,100.0,10.0,0.5952380952380952
42,3627213.0,5.0,63.0,Male,1.0,4-5,0.0,,catch_1,0.0,,,6152.205,,,,"{""FishSmall"":4,""FishBig"":2,""CanSmall"":0,""CanBig"":0,""Seaweed"":0}","{""FishSmall"":4,""FishBig"":2,""CanSmall"":0,""CanBig"":0,""Seaweed"":0}",0.0,0.0,,,,,,,,,,,"{""FishSmall"":2,""FishBig"":1,""CanSmall"":0,""CanBig"":0,""Seaweed"":0}","{""FishSmall"":3,""FishBig"":0,""CanSmall"":0,""CanBig"":0,""Seaweed"":0}",1.0,2425.960000001942,0.9615384615384616,2.0,2.0,2.0,2.0,2.0,2.0,2.0,1.0,2.0,2.0,2.0,2.0,2.0,100.0,,0.5952380952380952
43,3627213.0,5.0,63.0,Male,1.0,4-5,0.0,1.0,trial_11,,,1.0,,3953.845,,6446.33,"{""FishSmall"":1,""FishBig"":0,""CanSmall"":1,""CanBig"":1,""Seaweed"":3}","{""FishSmall"":1,""FishBig"":0,""CanSmall"":4,""CanBig"":0,""Seaweed"":1}",50.0,100.0,-3.333333333333333,-5.0,9.428090415820634,7.637626158259733,3.0,1.0,-1.6666666666666663,-1.7904642575609009,-2.0,50.0,"{""FishSmall"":1,""FishBig"":0,""CanSmall"":2,""CanBig"":0,""Seaweed"":0}","{""FishSmall"":0,""FishBig"":0,""CanSmall"":3,""CanBig"":0,""Seaweed"":0}",1.0,2425.960000001942,0.9615384615384616,2.0,2.0,2.0,2.0,2.0,2.0,2.0,1.0,2.0,2.0,2.0,2.0,2.0,100.0,11.0,0.5952380952380952
44,3627213.0,5.0,63.0,Male,1.0,4-5,0.0,0.0,trial_12,,0.0,,,5473.105,3277.035,,"{""FishSmall"":1,""FishBig"":0,""CanSmall"":2,""CanBig"":0,""Seaweed"":3}","{""FishSmall"":0,""FishBig"":0,""CanSmall"":4,""CanBig"":2,""Seaweed"":0}",100.0,0.0,-1.6666666666666667,-13.333333333333334,6.871842709362768,4.714045207910316,3.0,0.0,-11.666666666666668,-2.1577975014524515,-3.0,-100.0,"{""FishSmall"":0,""FishBig"":2,""CanSmall"":1,""CanBig"":0,""Seaweed"":0}","{""FishSmall"":0,""FishBig"":0,""CanSmall"":3,""CanBig"":0,""Seaweed"":0}",1.0,2425.960000001942,0.9615384615384616,2.0,2.0,2.0,2.0,2.0,2.0,2.0,1.0,2.0,2.0,2.0,2.0,2.0,100.0,12.0,0.5952380952380952
45,3627213.0,5.0,63.0,Male,1.0,4-5,0.0,1.0,trial_13,,0.0,0.0,,4117.735,6586.225,6688.96,"{""FishSmall"":2,""FishBig"":0,""CanSmall"":1,""CanBig"":0,""Seaweed"":3}","{""FishSmall"":2,""FishBig"":0,""CanSmall"":2,""CanBig"":0,""Seaweed"":2}",50.0,100.0,1.6666666666666667,0.0,6.871842709362768,8.16496580927726,3.0,2.0,-1.6666666666666667,1.2931230999144931,-1.0,50.0,"{""FishSmall"":2,""FishBig"":0,""CanSmall"":1,""CanBig"":0,""Seaweed"":0}","{""FishSmall"":1,""FishBig"":0,""CanSmall"":2,""CanBig"":0,""Seaweed"":0}",1.0,2425.960000001942,0.9615384615384616,2.0,2.0,2.0,2.0,2.0,2.0,2.0,1.0,2.0,2.0,2.0,2.0,2.0,100.0,13.0,0.5952380952380952
46,3627213.0,5.0,63.0,Male,1.0,4-5,0.0,0.0,trial_14,,0.0,0.0,,4399.955,4074.705,3375.615,"{""FishSmall"":1,""FishBig"":0,""CanSmall"":2,""CanBig"":1,""Seaweed"":2}","{""FishSmall"":3,""FishBig"":0,""CanSmall"":0,""CanBig"":0,""Seaweed"":3}",50.0,50.0,-5.0,5.0,9.57427107756338,5.0,2.0,3.0,10.0,-4.574271077563381,1.0,0.0,"{""FishSmall"":1,""FishBig"":0,""CanSmall"":1,""CanBig"":1,""Seaweed"":0}","{""FishSmall"":1,""FishBig"":1,""CanSmall"":0,""CanBig"":1,""Seaweed"":0}",1.0,2425.960000001942,0.9615384615384616,2.0,2.0,2.0,2.0,2.0,2.0,2.0,1.0,2.0,2.0,2.0,2.0,2.0,100.0,14.0,0.5952380952380952
47,3627213.0,5.0,63.0,Male,1.0,4-5,0.0,1.0,trial_15,,0.0,,,3528.065,1453.0,,"{""FishSmall"":0,""FishBig"":4,""CanSmall"":0,""CanBig"":0,""Seaweed"":2}","{""FishSmall"":2,""FishBig"":1,""CanSmall"":1,""CanBig"":0,""Seaweed"":2}",100.0,0.0,13.333333333333334,5.0,9.428090415820634,9.57427107756338,2.0,2.0,-8.333333333333334,0.146180661742747,0.0,-100.0,"{""FishSmall"":0,""FishBig"":2,""CanSmall"":0,""CanBig"":1,""Seaweed"":0}","{""FishSmall"":2,""FishBig"":0,""CanSmall"":1,""CanBig"":0,""Seaweed"":0}",1.0,2425.960000001942,0.9615384615384616,2.0,2.0,2.0,2.0,2.0,2.0,2.0,1.0,2.0,2.0,2.0,2.0,2.0,100.0,15.0,0.5952380952380952
48,3627213.0,5.0,63.0,Male,1.0,4-5,0.0,0.0,trial_16,,0.0,1.0,,4022.3,3813.165,7556.385,"{""FishSmall"":4,""FishBig"":2,""CanSmall"":0,""CanBig"":0,""Seaweed"":0}","{""FishSmall"":0,""FishBig"":0,""CanSmall"":2,""CanBig"":3,""Seaweed"":1}",100.0,50.0,13.333333333333334,-13.333333333333334,4.714045207910316,7.453559924999299,0.0,1.0,-26.666666666666668,2.739514717088982,1.0,-50.0,"{""FishSmall"":2,""FishBig"":1,""CanSmall"":0,""CanBig"":0,""Seaweed"":0}","{""FishSmall"":0,""FishBig"":1,""CanSmall"":0,""CanBig"":2,""Seaweed"":0}",1.0,2425.960000001942,0.9615384615384616,2.0,2.0,2.0,2.0,2.0,2.0,2.0,1.0,2.0,2.0,2.0,2.0,2.0,100.0,16.0,0.5952380952380952
49,3627213.0,5.0,63.0,Male,1.0,4-5,0.0,1.0,trial_17,,0.0,0.0,,6093.72,3752.855,5711.33,"{""FishSmall"":1,""FishBig"":0,""CanSmall"":2,""CanBig"":1,""Seaweed"":2}","{""FishSmall"":1,""FishBig"":1,""CanSmall"":1,""CanBig"":0,""Seaweed"":3}",100.0,100.0,-5.0,3.333333333333333,9.57427107756338,9.428090415820634,2.0,3.0,8.333333333333334,-0.146180661742747,1.0,0.0,"{""FishSmall"":0,""FishBig"":0,""CanSmall"":2,""CanBig"":1,""Seaweed"":0}","{""FishSmall"":2,""FishBig"":0,""CanSmall"":1,""CanBig"":0,""Seaweed"":0}",1.0,2425.960000001942,0.9615384615384616,2.0,2.0,2.0,2.0,2.0,2.0,2.0,1.0,2.0,2.0,2.0,2.0,2.0,100.0,17.0,0.5952380952380952
50,3627213.0,5.0,63.0,Male,1.0,4-5,0.0,1.0,trial_18,,0.0,,,7763.13,2886.245,,"{""FishSmall"":2,""FishBig"":0,""CanSmall"":1,""CanBig"":0,""Seaweed"":3}","{""FishSmall"":0,""FishBig"":0,""CanSmall"":2,""CanBig"":2,""Seaweed"":2}",100.0,0.0,1.6666666666666667,-10.0,6.871842709362768,8.16496580927726,3.0,2.0,-11.666666666666666,1.2931230999144931,-1.0,-100.0,"{""FishSmall"":0,""FishBig"":0,""CanSmall"":2,""CanBig"":1,""Seaweed"":0}","{""FishSmall"":0,""FishBig"":2,""CanSmall"":1,""CanBig"":0,""Seaweed"":0}",1.0,2425.960000001942,0.9615384615384616,2.0,2.0,2.0,2.0,2.0,2.0,2.0,1.0,2.0,2.0,2.0,2.0,2.0,100.0,18.0,0.5952380952380952
51,3627213.0,5.0,63.0,Male,1.0,4-5,0.0,0.0,trial_19,,0.0,0.0,,6777.645,7257.45,1549.155,"{""FishSmall"":2,""FishBig"":2,""CanSmall"":0,""CanBig"":0,""Seaweed"":2}","{""FishSmall"":0,""FishBig"":0,""CanSmall"":4,""CanBig"":1,""Seaweed"":1}",50.0,0.0,10.0,-10.0,8.16496580927726,5.773502691896258,2.0,1.0,-20.0,-2.3914631173810026,-1.0,-50.0,"{""FishSmall"":1,""FishBig"":2,""CanSmall"":0,""CanBig"":0,""Seaweed"":0}","{""FishSmall"":0,""FishBig"":1,""CanSmall"":1,""CanBig"":1,""Seaweed"":0}",1.0,2425.960000001942,0.9615384615384616,2.0,2.0,2.0,2.0,2.0,2.0,2.0,1.0,2.0,2.0,2.0,2.0,2.0,100.0,19.0,0.5952380952380952
52,3627213.0,5.0,63.0,Male,1.0,4-5,0.0,1.0,trial_20,,,0.0,,5187.805,,1493.58,"{""FishSmall"":1,""FishBig"":0,""CanSmall"":1,""CanBig"":1,""Seaweed"":3}","{""FishSmall"":3,""FishBig"":2,""CanSmall"":0,""CanBig"":0,""Seaweed"":1}",0.0,50.0,-3.333333333333333,11.666666666666666,9.428090415820634,6.871842709362768,3.0,1.0,15.0,-2.5562477064578664,-2.0,50.0,"{""FishSmall"":1,""FishBig"":1,""CanSmall"":0,""CanBig"":1,""Seaweed"":0}","{""FishSmall"":2,""FishBig"":1,""CanSmall"":0,""CanBig"":0,""Seaweed"":0}",1.0,2425.960000001942,0.9615384615384616,2.0,2.0,2.0,2.0,2.0,2.0,2.0,1.0,2.0,2.0,2.0,2.0,2.0,100.0,20.0,0.5952380952380952
53,3627213.0,5.0,63.0,Male,1.0,4-5,0.0,,catch_2,1.0,,,6611.935,,,,"{""FishSmall"":0,""FishBig"":0,""CanSmall"":3,""CanBig"":3,""Seaweed"":0}","{""FishSmall"":0,""FishBig"":0,""CanSmall"":3,""CanBig"":3,""Seaweed"":0}",0.0,0.0,,,,,,,,,,,"{""FishSmall"":0,""FishBig"":0,""CanSmall"":2,""CanBig"":1,""Seaweed"":0}","{""FishSmall"":0,""FishBig"":0,""CanSmall"":1,""CanBig"":2,""Seaweed"":0}",1.0,2425.960000001942,0.9615384615384616,2.0,2.0,2.0,2.0,2.0,2.0,2.0,1.0,2.0,2.0,2.0,2.0,2.0,100.0,,0.5952380952380952
54,3627213.0,5.0,63.0,Male,1.0,4-5,0.0,0.0,trial_21,,0.0,,,2490.52,5604.91,,"{""FishSmall"":0,""FishBig"":1,""CanSmall"":0,""CanBig"":1,""Seaweed"":4}","{""FishSmall"":0,""FishBig"":0,""CanSmall"":3,""CanBig"":1,""Seaweed"":2}",50.0,50.0,0.0,-8.333333333333334,11.547005383792516,6.871842709362768,4.0,2.0,-8.333333333333334,-4.675162674429749,-2.0,0.0,"{""FishSmall"":0,""FishBig"":1,""CanSmall"":1,""CanBig"":1,""Seaweed"":0}","{""FishSmall"":0,""FishBig"":0,""CanSmall"":2,""CanBig"":1,""Seaweed"":0}",1.0,2425.960000001942,0.9615384615384616,2.0,2.0,2.0,2.0,2.0,2.0,2.0,1.0,2.0,2.0,2.0,2.0,2.0,100.0,21.0,0.5952380952380952
55,3627213.0,5.0,63.0,Male,1.0,4-5,0.0,0.0,trial_22,,,,,3436.81,,,"{""FishSmall"":0,""FishBig"":4,""CanSmall"":0,""CanBig"":0,""Seaweed"":2}","{""FishSmall"":0,""FishBig"":0,""CanSmall"":0,""CanBig"":4,""Seaweed"":2}",0.0,0.0,13.333333333333334,-13.333333333333334,9.428090415820634,9.428090415820634,2.0,2.0,-26.666666666666668,0.0,0.0,0.0,"{""FishSmall"":0,""FishBig"":2,""CanSmall"":0,""CanBig"":1,""Seaweed"":0}","{""FishSmall"":1,""FishBig"":0,""CanSmall"":0,""CanBig"":2,""Seaweed"":0}",1.0,2425.960000001942,0.9615384615384616,2.0,2.0,2.0,2.0,2.0,2.0,2.0,1.0,2.0,2.0,2.0,2.0,2.0,100.0,22.0,0.5952380952380952
56,3627213.0,5.0,63.0,Male,1.0,4-5,0.0,1.0,trial_23,,,0.0,,3549.84,,1572.43,"{""FishSmall"":0,""FishBig"":0,""CanSmall"":1,""CanBig"":2,""Seaweed"":3}","{""FishSmall"":1,""FishBig"":1,""CanSmall"":1,""CanBig"":0,""Seaweed"":3}",0.0,50.0,-8.333333333333334,3.333333333333333,8.975274678557506,9.428090415820634,3.0,3.0,11.666666666666668,0.452815737263128,0.0,50.0,"{""FishSmall"":0,""FishBig"":1,""CanSmall"":1,""CanBig"":1,""Seaweed"":0}","{""FishSmall"":1,""FishBig"":2,""CanSmall"":0,""CanBig"":0,""Seaweed"":0}",1.0,2425.960000001942,0.9615384615384616,2.0,2.0,2.0,2.0,2.0,2.0,2.0,1.0,2.0,2.0,2.0,2.0,2.0,100.0,23.0,0.5952380952380952
57,3627213.0,5.0,63.0,Male,1.0,4-5,0.0,0.0,trial_24,,,0.0,,7044.985,,2526.33,"{""FishSmall"":1,""FishBig"":2,""CanSmall"":0,""CanBig"":0,""Seaweed"":3}","{""FishSmall"":0,""FishBig"":0,""CanSmall"":4,""CanBig"":0,""Seaweed"":2}",50.0,50.0,8.333333333333334,-6.666666666666667,8.975274678557506,4.714045207910317,3.0,2.0,-15.0,-4.261229470647189,-1.0,0.0,"{""FishSmall"":1,""FishBig"":1,""CanSmall"":1,""CanBig"":0,""Seaweed"":0}","{""FishSmall"":0,""FishBig"":1,""CanSmall"":2,""CanBig"":0,""Seaweed"":0}",1.0,2425.960000001942,0.9615384615384616,2.0,2.0,2.0,2.0,2.0,2.0,2.0,1.0,2.0,2.0,2.0,2.0,2.0,100.0,24.0,0.5952380952380952
58,3627213.0,5.0,63.0,Male,1.0,4-5,0.0,1.0,trial_25,,,,,4544.865,,,"{""FishSmall"":0,""FishBig"":0,""CanSmall"":2,""CanBig"":2,""Seaweed"":2}","{""FishSmall"":2,""FishBig"":0,""CanSmall"":3,""CanBig"":0,""Seaweed"":1}",0.0,50.0,-10.0,-1.6666666666666667,8.16496580927726,8.975274678557506,2.0,1.0,8.333333333333334,0.8103088692802451,-1.0,50.0,"{""FishSmall"":1,""FishBig"":0,""CanSmall"":1,""CanBig"":1,""Seaweed"":0}","{""FishSmall"":1,""FishBig"":0,""CanSmall"":2,""CanBig"":0,""Seaweed"":0}",1.0,2425.960000001942,0.9615384615384616,2.0,2.0,2.0,2.0,2.0,2.0,2.0,1.0,2.0,2.0,2.0,2.0,2.0,100.0,25.0,0.5952380952380952
59,3627213.0,5.0,63.0,Male,1.0,4-5,0.0,1.0,trial_26,,,0.0,,2279.785,,2837.995,"{""FishSmall"":0,""FishBig"":0,""CanSmall"":0,""CanBig"":4,""Seaweed"":2}","{""FishSmall"":0,""FishBig"":0,""CanSmall"":2,""CanBig"":1,""Seaweed"":3}",50.0,100.0,-13.333333333333334,-6.666666666666667,9.428090415820634,7.453559924999299,2.0,3.0,6.666666666666667,-1.9745304908213352,1.0,50.0,"{""FishSmall"":0,""FishBig"":0,""CanSmall"":0,""CanBig"":3,""Seaweed"":0}","{""FishSmall"":0,""FishBig"":1,""CanSmall"":2,""CanBig"":0,""Seaweed"":0}",1.0,2425.960000001942,0.9615384615384616,2.0,2.0,2.0,2.0,2.0,2.0,2.0,1.0,2.0,2.0,2.0,2.0,2.0,100.0,26.0,0.5952380952380952
60,3627213.0,5.0,63.0,Male,1.0,4-5,0.0,0.0,trial_27,,1.0,0.0,,4566.075,1931.855,7745.455,"{""FishSmall"":0,""FishBig"":0,""CanSmall"":3,""CanBig"":1,""Seaweed"":2}","{""FishSmall"":1,""FishBig"":0,""CanSmall"":3,""CanBig"":1,""Seaweed"":1}",100.0,50.0,-8.333333333333334,-6.666666666666667,6.871842709362768,9.428090415820632,2.0,1.0,1.666666666666667,2.5562477064578646,-1.0,-50.0,"{""FishSmall"":0,""FishBig"":0,""CanSmall"":2,""CanBig"":1,""Seaweed"":0}","{""FishSmall"":0,""FishBig"":0,""CanSmall"":2,""CanBig"":1,""Seaweed"":0}",1.0,2425.960000001942,0.9615384615384616,2.0,2.0,2.0,2.0,2.0,2.0,2.0,1.0,2.0,2.0,2.0,2.0,2.0,100.0,27.0,0.5952380952380952
61,3627213.0,5.0,63.0,Male,1.0,4-5,0.0,1.0,trial_28,,0.0,0.0,,7628.62,1987.925,3692.015,"{""FishSmall"":1,""FishBig"":0,""CanSmall"":3,""CanBig"":1,""Seaweed"":1}","{""FishSmall"":2,""FishBig"":0,""CanSmall"":2,""CanBig"":0,""Seaweed"":2}",50.0,50.0,-6.666666666666667,0.0,9.428090415820632,8.16496580927726,1.0,2.0,6.666666666666667,-1.2631246065433714,1.0,0.0,"{""FishSmall"":1,""FishBig"":0,""CanSmall"":1,""CanBig"":1,""Seaweed"":0}","{""FishSmall"":1,""FishBig"":0,""CanSmall"":1,""CanBig"":1,""Seaweed"":0}",1.0,2425.960000001942,0.9615384615384616,2.0,2.0,2.0,2.0,2.0,2.0,2.0,1.0,2.0,2.0,2.0,2.0,2.0,100.0,28.0,0.5952380952380952
62,3627213.0,5.0,63.0,Male,1.0,4-5,0.0,0.0,trial_29,,0.0,0.0,,1122.48,1158.68,7366.27,"{""FishSmall"":1,""FishBig"":0,""CanSmall"":1,""CanBig"":1,""Seaweed"":3}","{""FishSmall"":2,""FishBig"":0,""CanSmall"":1,""CanBig"":0,""Seaweed"":3}",100.0,100.0,-3.333333333333333,1.6666666666666667,9.428090415820634,6.871842709362768,3.0,3.0,5.0,-2.5562477064578664,0.0,0.0,"{""FishSmall"":1,""FishBig"":0,""CanSmall"":1,""CanBig"":1,""Seaweed"":0}","{""FishSmall"":1,""FishBig"":2,""CanSmall"":0,""CanBig"":0,""Seaweed"":0}",1.0,2425.960000001942,0.9615384615384616,2.0,2.0,2.0,2.0,2.0,2.0,2.0,1.0,2.0,2.0,2.0,2.0,2.0,100.0,29.0,0.5952380952380952
63,3627213.0,5.0,63.0,Male,1.0,4-5,0.0,1.0,trial_30,,0.0,0.0,,3822.495,1894.655,7470.485,"{""FishSmall"":1,""FishBig"":0,""CanSmall"":2,""CanBig"":1,""Seaweed"":2}","{""FishSmall"":1,""FishBig"":4,""CanSmall"":0,""CanBig"":0,""Seaweed"":1}",50.0,100.0,-5.0,15.0,9.57427107756338,7.637626158259733,2.0,1.0,20.0,-1.936644919303648,-1.0,50.0,"{""FishSmall"":1,""FishBig"":1,""CanSmall"":0,""CanBig"":1,""Seaweed"":0}","{""FishSmall"":0,""FishBig"":2,""CanSmall"":1,""CanBig"":0,""Seaweed"":0}",1.0,2425.960000001942,0.9615384615384616,2.0,2.0,2.0,2.0,2.0,2.0,2.0,1.0,2.0,2.0,2.0,2.0,2.0,100.0,30.0,0.5952380952380952
64,3651730.0,4.0,57.0,Female,2.0,4-5,0.0,1.0,trial_1,,0.0,0.0,,5888.0,8013.0,10551.0,"{""FishSmall"":1,""FishBig"":3,""CanSmall"":0,""CanBig"":0,""Seaweed"":2}","{""FishSmall"":0,""FishBig"":0,""CanSmall"":2,""CanBig"":1,""Seaweed"":3}",100.0,100.0,11.666666666666666,-6.666666666666667,8.975274678557506,7.453559924999299,2.0,3.0,-18.33333333333333,-1.5217147535582072,1.0,0.0,"{""FishSmall"":1,""FishBig"":2,""CanSmall"":0,""CanBig"":0,""Seaweed"":0}","{""FishSmall"":0,""FishBig"":0,""CanSmall"":2,""CanBig"":1,""Seaweed"":0}",0.8,1816.1,0.8461538461538461,2.0,1.0,1.0,2.0,2.0,2.0,2.0,2.0,2.0,2.0,1.0,2.0,1.0,100.0,1.0,0.6764705882352942
65,3651730.0,4.0,57.0,Female,2.0,4-5,0.0,1.0,trial_2,,,,,11191.0,,,"{""FishSmall"":0,""FishBig"":0,""CanSmall"":2,""CanBig"":2,""Seaweed"":2}","{""FishSmall"":2,""FishBig"":1,""CanSmall"":1,""CanBig"":0,""Seaweed"":2}",0.0,0.0,-10.0,5.0,8.16496580927726,9.57427107756338,2.0,2.0,15.0,1.4093052682861202,0.0,0.0,"{""FishSmall"":0,""FishBig"":0,""CanSmall"":0,""CanBig"":3,""Seaweed"":0}","{""FishSmall"":1,""FishBig"":1,""CanSmall"":1,""CanBig"":0,""Seaweed"":0}",0.8,1816.1,0.8461538461538461,2.0,1.0,1.0,2.0,2.0,2.0,2.0,2.0,2.0,2.0,1.0,2.0,1.0,100.0,2.0,0.6764705882352942
66,3651730.0,4.0,57.0,Female,2.0,4-5,0.0,0.0,trial_3,,0.0,0.0,,5127.0,7444.0,10293.0,"{""FishSmall"":3,""FishBig"":2,""CanSmall"":0,""CanBig"":0,""Seaweed"":1}","{""FishSmall"":1,""FishBig"":0,""CanSmall"":1,""CanBig"":1,""Seaweed"":3}",100.0,100.0,11.666666666666666,-3.333333333333333,6.871842709362768,9.428090415820634,1.0,3.0,-15.0,2.5562477064578664,2.0,0.0,"{""FishSmall"":1,""FishBig"":2,""CanSmall"":0,""CanBig"":0,""Seaweed"":0}","{""FishSmall"":0,""FishBig"":2,""CanSmall"":0,""CanBig"":1,""Seaweed"":0}",0.8,1816.1,0.8461538461538461,2.0,1.0,1.0,2.0,2.0,2.0,2.0,2.0,2.0,2.0,1.0,2.0,1.0,100.0,3.0,0.6764705882352942
67,3651730.0,4.0,57.0,Female,2.0,4-5,0.0,1.0,trial_4,,0.0,0.0,,15601.0,7931.0,7964.0,"{""FishSmall"":1,""FishBig"":0,""CanSmall"":1,""CanBig"":1,""Seaweed"":3}","{""FishSmall"":1,""FishBig"":0,""CanSmall"":1,""CanBig"":1,""Seaweed"":3}",50.0,100.0,-3.333333333333333,-3.333333333333333,9.428090415820634,9.428090415820634,3.0,3.0,0.0,0.0,0.0,50.0,"{""FishSmall"":0,""FishBig"":0,""CanSmall"":2,""CanBig"":1,""Seaweed"":0}","{""FishSmall"":1,""FishBig"":0,""CanSmall"":1,""CanBig"":1,""Seaweed"":0}",0.8,1816.1,0.8461538461538461,2.0,1.0,1.0,2.0,2.0,2.0,2.0,2.0,2.0,2.0,1.0,2.0,1.0,100.0,4.0,0.6764705882352942
68,3651730.0,4.0,57.0,Female,2.0,4-5,0.0,1.0,trial_5,,,,,6873.0,,,"{""FishSmall"":1,""FishBig"":0,""CanSmall"":4,""CanBig"":0,""Seaweed"":1}","{""FishSmall"":3,""FishBig"":2,""CanSmall"":0,""CanBig"":0,""Seaweed"":1}",50.0,50.0,-5.0,11.666666666666666,7.637626158259733,6.871842709362768,1.0,1.0,16.666666666666664,-0.7657834488969657,0.0,0.0,"{""FishSmall"":0,""FishBig"":0,""CanSmall"":3,""CanBig"":0,""Seaweed"":0}","{""FishSmall"":1,""FishBig"":2,""CanSmall"":0,""CanBig"":0,""Seaweed"":0}",0.8,1816.1,0.8461538461538461,2.0,1.0,1.0,2.0,2.0,2.0,2.0,2.0,2.0,2.0,1.0,2.0,1.0,100.0,5.0,0.6764705882352942
69,3651730.0,4.0,57.0,Female,2.0,4-5,0.0,0.0,trial_6,,0.0,0.0,,7569.0,7666.0,13226.0,"{""FishSmall"":3,""FishBig"":1,""CanSmall"":0,""CanBig"":0,""Seaweed"":2}","{""FishSmall"":2,""FishBig"":0,""CanSmall"":2,""CanBig"":0,""Seaweed"":2}",100.0,50.0,8.333333333333334,0.0,6.871842709362768,8.16496580927726,2.0,2.0,-8.333333333333334,1.2931230999144931,0.0,-50.0,"{""FishSmall"":2,""FishBig"":1,""CanSmall"":0,""CanBig"":0,""Seaweed"":0}","{""FishSmall"":2,""FishBig"":1,""CanSmall"":0,""CanBig"":0,""Seaweed"":0}",0.8,1816.1,0.8461538461538461,2.0,1.0,1.0,2.0,2.0,2.0,2.0,2.0,2.0,2.0,1.0,2.0,1.0,100.0,6.0,0.6764705882352942
70,3651730.0,4.0,57.0,Female,2.0,4-5,0.0,1.0,trial_7,,,,,6444.0,,,"{""FishSmall"":0,""FishBig"":0,""CanSmall"":2,""CanBig"":3,""Seaweed"":1}","{""FishSmall"":1,""FishBig"":0,""CanSmall"":2,""CanBig"":1,""Seaweed"":2}",0.0,0.0,-13.333333333333334,-5.0,7.453559924999299,9.57427107756338,1.0,2.0,8.333333333333334,2.1207111525640823,1.0,0.0,"{""FishSmall"":0,""FishBig"":0,""CanSmall"":2,""CanBig"":1,""Seaweed"":0}","{""FishSmall"":0,""FishBig"":0,""CanSmall"":2,""CanBig"":1,""Seaweed"":0}",0.8,1816.1,0.8461538461538461,2.0,1.0,1.0,2.0,2.0,2.0,2.0,2.0,2.0,2.0,1.0,2.0,1.0,100.0,7.0,0.6764705882352942
71,3651730.0,4.0,57.0,Female,2.0,4-5,0.0,0.0,trial_8,,,0.0,,8821.0,,7617.0,"{""FishSmall"":4,""FishBig"":0,""CanSmall"":1,""CanBig"":0,""Seaweed"":1}","{""FishSmall"":3,""FishBig"":2,""CanSmall"":0,""CanBig"":0,""Seaweed"":1}",0.0,50.0,5.0,11.666666666666666,7.637626158259733,6.871842709362768,1.0,1.0,6.666666666666666,-0.7657834488969657,0.0,50.0,"{""FishSmall"":2,""FishBig"":0,""CanSmall"":1,""CanBig"":0,""Seaweed"":0}","{""FishSmall"":2,""FishBig"":1,""CanSmall"":0,""CanBig"":0,""Seaweed"":0}",0.8,1816.1,0.8461538461538461,2.0,1.0,1.0,2.0,2.0,2.0,2.0,2.0,2.0,2.0,1.0,2.0,1.0,100.0,8.0,0.6764705882352942
72,3651730.0,4.0,57.0,Female,2.0,4-5,0.0,1.0,trial_9,,,0.0,,4778.0,,9368.0,"{""FishSmall"":0,""FishBig"":0,""CanSmall"":4,""CanBig"":1,""Seaweed"":1}","{""FishSmall"":1,""FishBig"":0,""CanSmall"":2,""CanBig"":1,""Seaweed"":2}",50.0,100.0,-10.0,-5.0,5.773502691896258,9.57427107756338,1.0,2.0,5.0,3.800768385667123,1.0,50.0,"{""FishSmall"":0,""FishBig"":0,""CanSmall"":3,""CanBig"":0,""Seaweed"":0}","{""FishSmall"":1,""FishBig"":1,""CanSmall"":1,""CanBig"":0,""Seaweed"":0}",0.8,1816.1,0.8461538461538461,2.0,1.0,1.0,2.0,2.0,2.0,2.0,2.0,2.0,2.0,1.0,2.0,1.0,100.0,9.0,0.6764705882352942
73,3651730.0,4.0,57.0,Female,2.0,4-5,0.0,0.0,trial_10,,0.0,0.0,,8107.0,9036.0,7647.0,"{""FishSmall"":0,""FishBig"":0,""CanSmall"":3,""CanBig"":2,""Seaweed"":1}","{""FishSmall"":0,""FishBig"":0,""CanSmall"":2,""CanBig"":2,""Seaweed"":2}",100.0,50.0,-11.666666666666666,-10.0,6.871842709362768,8.16496580927726,1.0,2.0,1.666666666666666,1.2931230999144931,1.0,-50.0,"{""FishSmall"":0,""FishBig"":0,""CanSmall"":0,""CanBig"":3,""Seaweed"":0}","{""FishSmall"":0,""FishBig"":0,""CanSmall"":1,""CanBig"":2,""Seaweed"":0}",0.8,1816.1,0.8461538461538461,2.0,1.0,1.0,2.0,2.0,2.0,2.0,2.0,2.0,2.0,1.0,2.0,1.0,100.0,10.0,0.6764705882352942
74,3651730.0,4.0,57.0,Female,2.0,4-5,0.0,,catch_1,0.0,,,7342.0,,,,"{""FishSmall"":4,""FishBig"":2,""CanSmall"":0,""CanBig"":0,""Seaweed"":0}","{""FishSmall"":4,""FishBig"":2,""CanSmall"":0,""CanBig"":0,""Seaweed"":0}",0.0,0.0,,,,,,,,,,,"{""FishSmall"":1,""FishBig"":2,""CanSmall"":0,""CanBig"":0,""Seaweed"":0}","{""FishSmall"":2,""FishBig"":1,""CanSmall"":0,""CanBig"":0,""Seaweed"":0}",0.8,1816.1,0.8461538461538461,2.0,1.0,1.0,2.0,2.0,2.0,2.0,2.0,2.0,2.0,1.0,2.0,1.0,100.0,,0.6764705882352942
75,3651730.0,4.0,57.0,Female,2.0,4-5,0.0,1.0,trial_11,,0.0,,,5509.0,14430.0,,"{""FishSmall"":1,""FishBig"":0,""CanSmall"":3,""CanBig"":0,""Seaweed"":2}","{""FishSmall"":3,""FishBig"":0,""CanSmall"":1,""CanBig"":0,""Seaweed"":2}",50.0,0.0,-3.333333333333333,3.333333333333333,7.453559924999299,7.453559924999298,2.0,2.0,6.666666666666667,-8.881784197001252e-16,0.0,-50.0,"{""FishSmall"":1,""FishBig"":0,""CanSmall"":2,""CanBig"":0,""Seaweed"":0}","{""FishSmall"":2,""FishBig"":0,""CanSmall"":1,""CanBig"":0,""Seaweed"":0}",0.8,1816.1,0.8461538461538461,2.0,1.0,1.0,2.0,2.0,2.0,2.0,2.0,2.0,2.0,1.0,2.0,1.0,100.0,11.0,0.6764705882352942
76,3651730.0,4.0,57.0,Female,2.0,4-5,0.0,0.0,trial_12,,0.0,0.0,,8989.0,11155.0,8785.0,"{""FishSmall"":2,""FishBig"":1,""CanSmall"":0,""CanBig"":0,""Seaweed"":3}","{""FishSmall"":1,""FishBig"":0,""CanSmall"":2,""CanBig"":1,""Seaweed"":2}",100.0,100.0,6.666666666666667,-5.0,7.453559924999299,9.57427107756338,3.0,2.0,-11.666666666666668,2.1207111525640823,-1.0,0.0,"{""FishSmall"":1,""FishBig"":0,""CanSmall"":1,""CanBig"":1,""Seaweed"":0}","{""FishSmall"":1,""FishBig"":0,""CanSmall"":1,""CanBig"":1,""Seaweed"":0}",0.8,1816.1,0.8461538461538461,2.0,1.0,1.0,2.0,2.0,2.0,2.0,2.0,2.0,2.0,1.0,2.0,1.0,100.0,12.0,0.6764705882352942
77,3651730.0,4.0,57.0,Female,2.0,4-5,0.0,1.0,trial_13,,,,,3539.0,,,"{""FishSmall"":0,""FishBig"":0,""CanSmall"":4,""CanBig"":0,""Seaweed"":2}","{""FishSmall"":2,""FishBig"":3,""CanSmall"":0,""CanBig"":0,""Seaweed"":1}",50.0,0.0,-6.666666666666667,13.333333333333334,4.714045207910317,7.453559924999299,2.0,1.0,20.0,2.7395147170889818,-1.0,-50.0,"{""FishSmall"":1,""FishBig"":0,""CanSmall"":1,""CanBig"":1,""Seaweed"":0}","{""FishSmall"":1,""FishBig"":2,""CanSmall"":0,""CanBig"":0,""Seaweed"":0}",0.8,1816.1,0.8461538461538461,2.0,1.0,1.0,2.0,2.0,2.0,2.0,2.0,2.0,2.0,1.0,2.0,1.0,100.0,13.0,0.6764705882352942
78,3651730.0,4.0,57.0,Female,2.0,4-5,0.0,1.0,trial_14,,,0.0,,7581.0,,9720.0,"{""FishSmall"":0,""FishBig"":0,""CanSmall"":2,""CanBig"":1,""Seaweed"":3}","{""FishSmall"":3,""FishBig"":0,""CanSmall"":1,""CanBig"":0,""Seaweed"":2}",50.0,100.0,-6.666666666666667,3.333333333333333,7.453559924999299,7.453559924999298,3.0,2.0,10.0,-8.881784197001252e-16,-1.0,50.0,"{""FishSmall"":0,""FishBig"":0,""CanSmall"":1,""CanBig"":2,""Seaweed"":0}","{""FishSmall"":2,""FishBig"":0,""CanSmall"":1,""CanBig"":0,""Seaweed"":0}",0.8,1816.1,0.8461538461538461,2.0,1.0,1.0,2.0,2.0,2.0,2.0,2.0,2.0,2.0,1.0,2.0,1.0,100.0,14.0,0.6764705882352942
79,3651730.0,4.0,57.0,Female,2.0,4-5,0.0,0.0,trial_15,,,0.0,,6306.0,,7241.0,"{""FishSmall"":1,""FishBig"":1,""CanSmall"":1,""CanBig"":0,""Seaweed"":3}","{""FishSmall"":2,""FishBig"":1,""CanSmall"":1,""CanBig"":0,""Seaweed"":2}",0.0,50.0,3.333333333333333,5.0,9.428090415820634,9.57427107756338,3.0,2.0,1.6666666666666663,0.146180661742747,-1.0,50.0,"{""FishSmall"":2,""FishBig"":1,""CanSmall"":0,""CanBig"":0,""Seaweed"":0}","{""FishSmall"":1,""FishBig"":1,""CanSmall"":1,""CanBig"":0,""Seaweed"":0}",0.8,1816.1,0.8461538461538461,2.0,1.0,1.0,2.0,2.0,2.0,2.0,2.0,2.0,2.0,1.0,2.0,1.0,100.0,15.0,0.6764705882352942
80,3651730.0,4.0,57.0,Female,2.0,4-5,0.0,0.0,trial_16,,0.0,,,22393.0,9521.0,,"{""FishSmall"":3,""FishBig"":1,""CanSmall"":1,""CanBig"":0,""Seaweed"":1}","{""FishSmall"":0,""FishBig"":0,""CanSmall"":1,""CanBig"":3,""Seaweed"":2}",100.0,0.0,6.666666666666667,-11.666666666666666,9.428090415820634,8.975274678557506,1.0,2.0,-18.33333333333333,-0.452815737263128,1.0,-100.0,"{""FishSmall"":2,""FishBig"":1,""CanSmall"":0,""CanBig"":0,""Seaweed"":0}","{""FishSmall"":0,""FishBig"":1,""CanSmall"":1,""CanBig"":1,""Seaweed"":0}",0.8,1816.1,0.8461538461538461,2.0,1.0,1.0,2.0,2.0,2.0,2.0,2.0,2.0,2.0,1.0,2.0,1.0,100.0,16.0,0.6764705882352942
81,3651730.0,4.0,57.0,Female,2.0,4-5,0.0,1.0,trial_17,,,,,4251.0,,,"{""FishSmall"":2,""FishBig"":0,""CanSmall"":2,""CanBig"":0,""Seaweed"":2}","{""FishSmall"":0,""FishBig"":0,""CanSmall"":1,""CanBig"":3,""Seaweed"":2}",0.0,0.0,0.0,-11.666666666666666,8.16496580927726,8.975274678557506,2.0,2.0,-11.666666666666666,0.8103088692802451,0.0,0.0,"{""FishSmall"":2,""FishBig"":0,""CanSmall"":1,""CanBig"":0,""Seaweed"":0}","{""FishSmall"":0,""FishBig"":0,""CanSmall"":1,""CanBig"":2,""Seaweed"":0}",0.8,1816.1,0.8461538461538461,2.0,1.0,1.0,2.0,2.0,2.0,2.0,2.0,2.0,2.0,1.0,2.0,1.0,100.0,17.0,0.6764705882352942
82,3651730.0,4.0,57.0,Female,2.0,4-5,0.0,0.0,trial_18,,1.0,0.0,,8550.0,22598.0,13296.0,"{""FishSmall"":1,""FishBig"":0,""CanSmall"":5,""CanBig"":0,""Seaweed"":0}","{""FishSmall"":1,""FishBig"":0,""CanSmall"":3,""CanBig"":1,""Seaweed"":1}",100.0,50.0,-6.666666666666667,-6.666666666666667,7.453559924999298,9.428090415820632,0.0,1.0,0.0,1.9745304908213344,1.0,-50.0,"{""FishSmall"":0,""FishBig"":0,""CanSmall"":3,""CanBig"":0,""Seaweed"":0}","{""FishSmall"":1,""FishBig"":0,""CanSmall"":2,""CanBig"":0,""Seaweed"":0}",0.8,1816.1,0.8461538461538461,2.0,1.0,1.0,2.0,2.0,2.0,2.0,2.0,2.0,2.0,1.0,2.0,1.0,100.0,18.0,0.6764705882352942
83,3651730.0,4.0,57.0,Female,2.0,4-5,0.0,0.0,trial_19,,0.0,,,8371.0,7487.0,,"{""FishSmall"":3,""FishBig"":1,""CanSmall"":1,""CanBig"":0,""Seaweed"":1}","{""FishSmall"":0,""FishBig"":0,""CanSmall"":4,""CanBig"":2,""Seaweed"":0}",50.0,50.0,6.666666666666667,-13.333333333333334,9.428090415820634,4.714045207910316,1.0,0.0,-20.0,-4.714045207910318,-1.0,0.0,"{""FishSmall"":1,""FishBig"":1,""CanSmall"":1,""CanBig"":0,""Seaweed"":0}","{""FishSmall"":0,""FishBig"":0,""CanSmall"":1,""CanBig"":2,""Seaweed"":0}",0.8,1816.1,0.8461538461538461,2.0,1.0,1.0,2.0,2.0,2.0,2.0,2.0,2.0,2.0,1.0,2.0,1.0,100.0,19.0,0.6764705882352942
84,3651730.0,4.0,57.0,Female,2.0,4-5,0.0,1.0,trial_20,,1.0,0.0,,3673.0,7152.0,10545.0,"{""FishSmall"":1,""FishBig"":0,""CanSmall"":2,""CanBig"":1,""Seaweed"":2}","{""FishSmall"":1,""FishBig"":2,""CanSmall"":0,""CanBig"":0,""Seaweed"":3}",50.0,50.0,-5.0,8.333333333333334,9.57427107756338,8.975274678557506,2.0,3.0,13.333333333333334,-0.5989963990058751,1.0,0.0,"{""FishSmall"":2,""FishBig"":0,""CanSmall"":1,""CanBig"":0,""Seaweed"":0}","{""FishSmall"":1,""FishBig"":1,""CanSmall"":0,""CanBig"":1,""Seaweed"":0}",0.8,1816.1,0.8461538461538461,2.0,1.0,1.0,2.0,2.0,2.0,2.0,2.0,2.0,2.0,1.0,2.0,1.0,100.0,20.0,0.6764705882352942
85,3651730.0,4.0,57.0,Female,2.0,4-5,0.0,,catch_2,1.0,,,5061.0,,,,"{""FishSmall"":0,""FishBig"":0,""CanSmall"":3,""CanBig"":3,""Seaweed"":0}","{""FishSmall"":0,""FishBig"":0,""CanSmall"":3,""CanBig"":3,""Seaweed"":0}",0.0,0.0,,,,,,,,,,,"{""FishSmall"":0,""FishBig"":0,""CanSmall"":1,""CanBig"":2,""Seaweed"":0}","{""FishSmall"":0,""FishBig"":0,""CanSmall"":3,""CanBig"":0,""Seaweed"":0}",0.8,1816.1,0.8461538461538461,2.0,1.0,1.0,2.0,2.0,2.0,2.0,2.0,2.0,2.0,1.0,2.0,1.0,100.0,,0.6764705882352942
86,3651730.0,4.0,57.0,Female,2.0,4-5,0.0,0.0,trial_21,,1.0,,,4784.0,5096.0,,"{""FishSmall"":3,""FishBig"":0,""CanSmall"":0,""CanBig"":0,""Seaweed"":3}","{""FishSmall"":1,""FishBig"":4,""CanSmall"":0,""CanBig"":0,""Seaweed"":1}",100.0,0.0,5.0,15.0,5.0,7.637626158259733,3.0,1.0,10.0,2.6376261582597333,-2.0,-100.0,"{""FishSmall"":1,""FishBig"":0,""CanSmall"":0,""CanBig"":2,""Seaweed"":0}","{""FishSmall"":0,""FishBig"":2,""CanSmall"":0,""CanBig"":1,""Seaweed"":0}",0.8,1816.1,0.8461538461538461,2.0,1.0,1.0,2.0,2.0,2.0,2.0,2.0,2.0,2.0,1.0,2.0,1.0,100.0,21.0,0.6764705882352942
87,3651730.0,4.0,57.0,Female,2.0,4-5,0.0,1.0,trial_22,,0.0,,,4707.0,12504.0,,"{""FishSmall"":3,""FishBig"":0,""CanSmall"":1,""CanBig"":0,""Seaweed"":2}","{""FishSmall"":0,""FishBig"":0,""CanSmall"":0,""CanBig"":4,""Seaweed"":2}",100.0,0.0,3.333333333333333,-13.333333333333334,7.453559924999298,9.428090415820634,2.0,2.0,-16.666666666666668,1.974530490821336,0.0,-100.0,"{""FishSmall"":2,""FishBig"":0,""CanSmall"":1,""CanBig"":0,""Seaweed"":0}","{""FishSmall"":1,""FishBig"":0,""CanSmall"":0,""CanBig"":2,""Seaweed"":0}",0.8,1816.1,0.8461538461538461,2.0,1.0,1.0,2.0,2.0,2.0,2.0,2.0,2.0,2.0,1.0,2.0,1.0,100.0,22.0,0.6764705882352942
88,3651730.0,4.0,57.0,Female,2.0,4-5,0.0,0.0,trial_23,,1.0,,,5517.0,8845.0,,"{""FishSmall"":0,""FishBig"":0,""CanSmall"":2,""CanBig"":2,""Seaweed"":2}","{""FishSmall"":3,""FishBig"":2,""CanSmall"":0,""CanBig"":0,""Seaweed"":1}",50.0,0.0,-10.0,11.666666666666666,8.16496580927726,6.871842709362768,2.0,1.0,21.666666666666664,-1.2931230999144931,-1.0,-50.0,"{""FishSmall"":0,""FishBig"":0,""CanSmall"":2,""CanBig"":1,""Seaweed"":0}","{""FishSmall"":1,""FishBig"":1,""CanSmall"":1,""CanBig"":0,""Seaweed"":0}",0.8,1816.1,0.8461538461538461,2.0,1.0,1.0,2.0,2.0,2.0,2.0,2.0,2.0,2.0,1.0,2.0,1.0,100.0,23.0,0.6764705882352942
89,3651730.0,4.0,57.0,Female,2.0,4-5,0.0,0.0,trial_24,,1.0,0.0,,5246.0,5865.0,7706.0,"{""FishSmall"":1,""FishBig"":0,""CanSmall"":4,""CanBig"":1,""Seaweed"":0}","{""FishSmall"":2,""FishBig"":1,""CanSmall"":1,""CanBig"":0,""Seaweed"":2}",100.0,50.0,-8.333333333333334,5.0,8.975274678557506,9.57427107756338,0.0,2.0,13.333333333333334,0.5989963990058751,2.0,-50.0,"{""FishSmall"":0,""FishBig"":0,""CanSmall"":2,""CanBig"":1,""Seaweed"":0}","{""FishSmall"":1,""FishBig"":1,""CanSmall"":1,""CanBig"":0,""Seaweed"":0}",0.8,1816.1,0.8461538461538461,2.0,1.0,1.0,2.0,2.0,2.0,2.0,2.0,2.0,2.0,1.0,2.0,1.0,100.0,24.0,0.6764705882352942
90,3651730.0,4.0,57.0,Female,2.0,4-5,0.0,0.0,trial_25,,0.0,,,2436.0,4355.0,,"{""FishSmall"":0,""FishBig"":1,""CanSmall"":0,""CanBig"":1,""Seaweed"":4}","{""FishSmall"":2,""FishBig"":2,""CanSmall"":0,""CanBig"":0,""Seaweed"":2}",100.0,0.0,0.0,10.0,11.547005383792516,8.16496580927726,4.0,2.0,10.0,-3.382039574515256,-2.0,-100.0,"{""FishSmall"":2,""FishBig"":1,""CanSmall"":0,""CanBig"":0,""Seaweed"":0}","{""FishSmall"":0,""FishBig"":3,""CanSmall"":0,""CanBig"":0,""Seaweed"":0}",0.8,1816.1,0.8461538461538461,2.0,1.0,1.0,2.0,2.0,2.0,2.0,2.0,2.0,2.0,1.0,2.0,1.0,100.0,25.0,0.6764705882352942
91,3651730.0,4.0,57.0,Female,2.0,4-5,0.0,0.0,trial_26,,,0.0,,3395.0,,7586.0,"{""FishSmall"":0,""FishBig"":0,""CanSmall"":3,""CanBig"":1,""Seaweed"":2}","{""FishSmall"":1,""FishBig"":1,""CanSmall"":1,""CanBig"":0,""Seaweed"":3}",50.0,100.0,-8.333333333333334,3.333333333333333,6.871842709362768,9.428090415820634,2.0,3.0,11.666666666666668,2.5562477064578664,1.0,50.0,"{""FishSmall"":0,""FishBig"":0,""CanSmall"":1,""CanBig"":2,""Seaweed"":0}","{""FishSmall"":0,""FishBig"":1,""CanSmall"":1,""CanBig"":1,""Seaweed"":0}",0.8,1816.1,0.8461538461538461,2.0,1.0,1.0,2.0,2.0,2.0,2.0,2.0,2.0,2.0,1.0,2.0,1.0,100.0,26.0,0.6764705882352942
92,3651730.0,4.0,57.0,Female,2.0,4-5,0.0,0.0,trial_27,,,1.0,,2850.0,,10310.0,"{""FishSmall"":1,""FishBig"":0,""CanSmall"":1,""CanBig"":1,""Seaweed"":3}","{""FishSmall"":1,""FishBig"":2,""CanSmall"":0,""CanBig"":0,""Seaweed"":3}",0.0,100.0,-3.333333333333333,8.333333333333334,9.428090415820634,8.975274678557506,3.0,3.0,11.666666666666668,-0.452815737263128,0.0,100.0,"{""FishSmall"":2,""FishBig"":1,""CanSmall"":0,""CanBig"":0,""Seaweed"":0}","{""FishSmall"":1,""FishBig"":1,""CanSmall"":0,""CanBig"":1,""Seaweed"":0}",0.8,1816.1,0.8461538461538461,2.0,1.0,1.0,2.0,2.0,2.0,2.0,2.0,2.0,2.0,1.0,2.0,1.0,100.0,27.0,0.6764705882352942
93,3651730.0,4.0,57.0,Female,2.0,4-5,0.0,0.0,trial_28,,,0.0,,6152.0,,9255.0,"{""FishSmall"":3,""FishBig"":1,""CanSmall"":0,""CanBig"":0,""Seaweed"":2}","{""FishSmall"":2,""FishBig"":1,""CanSmall"":0,""CanBig"":0,""Seaweed"":3}",0.0,100.0,8.333333333333334,6.666666666666667,6.871842709362768,7.453559924999299,2.0,3.0,-1.666666666666667,0.5817172156365311,1.0,100.0,"{""FishSmall"":2,""FishBig"":1,""CanSmall"":0,""CanBig"":0,""Seaweed"":0}","{""FishSmall"":1,""FishBig"":1,""CanSmall"":0,""CanBig"":1,""Seaweed"":0}",0.8,1816.1,0.8461538461538461,2.0,1.0,1.0,2.0,2.0,2.0,2.0,2.0,2.0,2.0,1.0,2.0,1.0,100.0,28.0,0.6764705882352942
94,3651730.0,4.0,57.0,Female,2.0,4-5,0.0,0.0,trial_29,,,0.0,,7047.0,,19489.0,"{""FishSmall"":4,""FishBig"":1,""CanSmall"":1,""CanBig"":0,""Seaweed"":0}","{""FishSmall"":0,""FishBig"":5,""CanSmall"":0,""CanBig"":0,""Seaweed"":1}",0.0,100.0,8.333333333333334,16.666666666666668,8.975274678557506,7.4535599249993,0.0,1.0,8.333333333333334,-1.5217147535582063,1.0,100.0,"{""FishSmall"":2,""FishBig"":1,""CanSmall"":0,""CanBig"":0,""Seaweed"":0}","{""FishSmall"":0,""FishBig"":3,""CanSmall"":0,""CanBig"":0,""Seaweed"":0}",0.8,1816.1,0.8461538461538461,2.0,1.0,1.0,2.0,2.0,2.0,2.0,2.0,2.0,2.0,1.0,2.0,1.0,100.0,29.0,0.6764705882352942
95,3651730.0,4.0,57.0,Female,2.0,4-5,0.0,0.0,trial_30,,0.0,,,1507.0,3776.0,,"{""FishSmall"":3,""FishBig"":1,""CanSmall"":1,""CanBig"":0,""Seaweed"":1}","{""FishSmall"":3,""FishBig"":0,""CanSmall"":1,""CanBig"":0,""Seaweed"":2}",100.0,50.0,6.666666666666667,3.333333333333333,9.428090415820634,7.453559924999298,1.0,2.0,-3.333333333333333,-1.974530490821336,1.0,-50.0,"{""FishSmall"":2,""FishBig"":1,""CanSmall"":0,""CanBig"":0,""Seaweed"":0}","{""FishSmall"":1,""FishBig"":0,""CanSmall"":2,""CanBig"":0,""Seaweed"":0}",0.8,1816.1,0.8461538461538461,2.0,1.0,1.0,2.0,2.0,2.0,2.0,2.0,2.0,2.0,1.0,2.0,1.0,100.0,30.0,0.6764705882352942
96,3652123.0,10.0,123.0,Female,2.0,10-12,3.0,0.0,trial_1,,1.0,,,7293.425,1868.59,,"{""FishSmall"":1,""FishBig"":0,""CanSmall"":2,""CanBig"":1,""Seaweed"":2}","{""FishSmall"":1,""FishBig"":0,""CanSmall"":1,""CanBig"":1,""Seaweed"":3}",100.0,50.0,-5.0,-3.333333333333333,9.57427107756338,9.428090415820634,2.0,3.0,1.6666666666666663,-0.146180661742747,1.0,-50.0,"{""FishSmall"":0,""FishBig"":0,""CanSmall"":1,""CanBig"":2,""Seaweed"":0}","{""FishSmall"":1,""FishBig"":1,""CanSmall"":0,""CanBig"":1,""Seaweed"":0}",1.0,1227.9064999893308,1.0,2.0,2.0,2.0,2.0,2.0,2.0,2.0,2.0,2.0,2.0,2.0,2.0,2.0,100.0,1.0,1.0
97,3652123.0,10.0,123.0,Female,2.0,10-12,3.0,0.0,trial_2,,0.0,,,6877.46,3268.915,,"{""FishSmall"":1,""FishBig"":0,""CanSmall"":2,""CanBig"":1,""Seaweed"":2}","{""FishSmall"":0,""FishBig"":0,""CanSmall"":3,""CanBig"":3,""Seaweed"":0}",50.0,0.0,-5.0,-15.0,9.57427107756338,5.0,2.0,0.0,-10.0,-4.574271077563381,-2.0,-50.0,"{""FishSmall"":2,""FishBig"":0,""CanSmall"":0,""CanBig"":1,""Seaweed"":0}","{""FishSmall"":0,""FishBig"":0,""CanSmall"":3,""CanBig"":0,""Seaweed"":0}",1.0,1227.9064999893308,1.0,2.0,2.0,2.0,2.0,2.0,2.0,2.0,2.0,2.0,2.0,2.0,2.0,2.0,100.0,2.0,1.0
98,3652123.0,10.0,123.0,Female,2.0,10-12,3.0,0.0,trial_3,,,,,2410.02,,,"{""FishSmall"":0,""FishBig"":4,""CanSmall"":0,""CanBig"":0,""Seaweed"":2}","{""FishSmall"":3,""FishBig"":0,""CanSmall"":1,""CanBig"":0,""Seaweed"":2}",50.0,0.0,13.333333333333334,3.333333333333333,9.428090415820634,7.453559924999298,2.0,2.0,-10.0,-1.974530490821336,0.0,-50.0,"{""FishSmall"":0,""FishBig"":3,""CanSmall"":0,""CanBig"":0,""Seaweed"":0}","{""FishSmall"":2,""FishBig"":1,""CanSmall"":0,""CanBig"":0,""Seaweed"":0}",1.0,1227.9064999893308,1.0,2.0,2.0,2.0,2.0,2.0,2.0,2.0,2.0,2.0,2.0,2.0,2.0,2.0,100.0,3.0,1.0
99,3652123.0,10.0,123.0,Female,2.0,10-12,3.0,1.0,trial_4,,,1.0,,1634.425,,1951.235,"{""FishSmall"":0,""FishBig"":0,""CanSmall"":4,""CanBig"":1,""Seaweed"":1}","{""FishSmall"":1,""FishBig"":0,""CanSmall"":3,""CanBig"":1,""Seaweed"":1}",0.0,100.0,-10.0,-6.666666666666667,5.773502691896258,9.428090415820632,1.0,1.0,3.333333333333333,3.654587723924374,0.0,100.0,"{""FishSmall"":0,""FishBig"":0,""CanSmall"":2,""CanBig"":1,""Seaweed"":0}","{""FishSmall"":1,""FishBig"":0,""CanSmall"":2,""CanBig"":0,""Seaweed"":0}",1.0,1227.9064999893308,1.0,2.0,2.0,2.0,2.0,2.0,2.0,2.0,2.0,2.0,2.0,2.0,2.0,2.0,100.0,4.0,1.0
100,3652123.0,10.0,123.0,Female,2.0,10-12,3.0,0.0,trial_5,,0.0,,,2003.34,1458.21,,"{""FishSmall"":4,""FishBig"":1,""CanSmall"":0,""CanBig"":0,""Seaweed"":1}","{""FishSmall"":2,""FishBig"":0,""CanSmall"":4,""CanBig"":0,""Seaweed"":0}",50.0,50.0,10.0,-3.333333333333333,5.773502691896258,9.428090415820634,1.0,0.0,-13.333333333333334,3.654587723924376,-1.0,0.0,"{""FishSmall"":2,""FishBig"":0,""CanSmall"":0,""CanBig"":1,""Seaweed"":0}","{""FishSmall"":1,""FishBig"":0,""CanSmall"":2,""CanBig"":0,""Seaweed"":0}",1.0,1227.9064999893308,1.0,2.0,2.0,2.0,2.0,2.0,2.0,2.0,2.0,2.0,2.0,2.0,2.0,2.0,100.0,5.0,1.0
101,3652123.0,10.0,123.0,Female,2.0,10-12,3.0,1.0,trial_6,,1.0,,,2323.645,4338.135,,"{""FishSmall"":0,""FishBig"":0,""CanSmall"":1,""CanBig"":2,""Seaweed"":3}","{""FishSmall"":3,""FishBig"":2,""CanSmall"":0,""CanBig"":0,""Seaweed"":1}",100.0,0.0,-8.333333333333334,11.666666666666666,8.975274678557506,6.871842709362768,3.0,1.0,20.0,-2.1034319691947383,-2.0,-100.0,"{""FishSmall"":0,""FishBig"":1,""CanSmall"":0,""CanBig"":2,""Seaweed"":0}","{""FishSmall"":1,""FishBig"":2,""CanSmall"":0,""CanBig"":0,""Seaweed"":0}",1.0,1227.9064999893308,1.0,2.0,2.0,2.0,2.0,2.0,2.0,2.0,2.0,2.0,2.0,2.0,2.0,2.0,100.0,6.0,1.0
102,3652123.0,10.0,123.0,Female,2.0,10-12,3.0,0.0,trial_7,,0.0,,,2117.6,1927.375,,"{""FishSmall"":2,""FishBig"":0,""CanSmall"":2,""CanBig"":0,""Seaweed"":2}","{""FishSmall"":4,""FishBig"":1,""CanSmall"":0,""CanBig"":0,""Seaweed"":1}",50.0,0.0,0.0,10.0,8.16496580927726,5.773502691896258,2.0,1.0,10.0,-2.3914631173810026,-1.0,-50.0,"{""FishSmall"":2,""FishBig"":0,""CanSmall"":1,""CanBig"":0,""Seaweed"":0}","{""FishSmall"":2,""FishBig"":0,""CanSmall"":0,""CanBig"":1,""Seaweed"":0}",1.0,1227.9064999893308,1.0,2.0,2.0,2.0,2.0,2.0,2.0,2.0,2.0,2.0,2.0,2.0,2.0,2.0,100.0,7.0,1.0
103,3652123.0,10.0,123.0,Female,2.0,10-12,3.0,0.0,trial_8,,,,,1918.32,,,"{""FishSmall"":3,""FishBig"":1,""CanSmall"":1,""CanBig"":0,""Seaweed"":1}","{""FishSmall"":0,""FishBig"":0,""CanSmall"":3,""CanBig"":2,""Seaweed"":1}",50.0,0.0,6.666666666666667,-11.666666666666666,9.428090415820634,6.871842709362768,1.0,1.0,-18.33333333333333,-2.5562477064578664,0.0,-50.0,"{""FishSmall"":1,""FishBig"":2,""CanSmall"":0,""CanBig"":0,""Seaweed"":0}","{""FishSmall"":0,""FishBig"":0,""CanSmall"":1,""CanBig"":2,""Seaweed"":0}",1.0,1227.9064999893308,1.0,2.0,2.0,2.0,2.0,2.0,2.0,2.0,2.0,2.0,2.0,2.0,2.0,2.0,100.0,8.0,1.0
104,3652123.0,10.0,123.0,Female,2.0,10-12,3.0,1.0,trial_9,,,,,1423.225,,,"{""FishSmall"":0,""FishBig"":0,""CanSmall"":1,""CanBig"":2,""Seaweed"":3}","{""FishSmall"":3,""FishBig"":0,""CanSmall"":1,""CanBig"":0,""Seaweed"":2}",0.0,50.0,-8.333333333333334,3.333333333333333,8.975274678557506,7.453559924999298,3.0,2.0,11.666666666666668,-1.521714753558208,-1.0,50.0,"{""FishSmall"":1,""FishBig"":0,""CanSmall"":1,""CanBig"":1,""Seaweed"":0}","{""FishSmall"":2,""FishBig"":0,""CanSmall"":0,""CanBig"":1,""Seaweed"":0}",1.0,1227.9064999893308,1.0,2.0,2.0,2.0,2.0,2.0,2.0,2.0,2.0,2.0,2.0,2.0,2.0,2.0,100.0,9.0,1.0
105,3652123.0,10.0,123.0,Female,2.0,10-12,3.0,0.0,trial_10,,,0.0,,2135.135,,1643.145,"{""FishSmall"":1,""FishBig"":1,""CanSmall"":1,""CanBig"":0,""Seaweed"":3}","{""FishSmall"":3,""FishBig"":3,""CanSmall"":0,""CanBig"":0,""Seaweed"":0}",0.0,100.0,3.333333333333333,15.0,9.428090415820634,5.0,3.0,0.0,11.666666666666666,-4.428090415820634,-3.0,100.0,"{""FishSmall"":1,""FishBig"":2,""CanSmall"":0,""CanBig"":0,""Seaweed"":0}","{""FishSmall"":1,""FishBig"":2,""CanSmall"":0,""CanBig"":0,""Seaweed"":0}",1.0,1227.9064999893308,1.0,2.0,2.0,2.0,2.0,2.0,2.0,2.0,2.0,2.0,2.0,2.0,2.0,2.0,100.0,10.0,1.0
106,3652123.0,10.0,123.0,Female,2.0,10-12,3.0,,catch_1,0.0,,,5306.78,,,,"{""FishSmall"":4,""FishBig"":2,""CanSmall"":0,""CanBig"":0,""Seaweed"":0}","{""FishSmall"":4,""FishBig"":2,""CanSmall"":0,""CanBig"":0,""Seaweed"":0}",0.0,0.0,,,,,,,,,,,"{""FishSmall"":2,""FishBig"":1,""CanSmall"":0,""CanBig"":0,""Seaweed"":0}","{""FishSmall"":2,""FishBig"":1,""CanSmall"":0,""CanBig"":0,""Seaweed"":0}",1.0,1227.9064999893308,1.0,2.0,2.0,2.0,2.0,2.0,2.0,2.0,2.0,2.0,2.0,2.0,2.0,2.0,100.0,,1.0
107,3652123.0,10.0,123.0,Female,2.0,10-12,3.0,0.0,trial_11,,,,,3020.035,,,"{""FishSmall"":3,""FishBig"":1,""CanSmall"":1,""CanBig"":0,""Seaweed"":1}","{""FishSmall"":2,""FishBig"":1,""CanSmall"":1,""CanBig"":0,""Seaweed"":2}",50.0,0.0,6.666666666666667,5.0,9.428090415820634,9.57427107756338,1.0,2.0,-1.666666666666667,0.146180661742747,1.0,-50.0,"{""FishSmall"":2,""FishBig"":1,""CanSmall"":0,""CanBig"":0,""Seaweed"":0}","{""FishSmall"":3,""FishBig"":0,""CanSmall"":0,""CanBig"":0,""Seaweed"":0}",1.0,1227.9064999893308,1.0,2.0,2.0,2.0,2.0,2.0,2.0,2.0,2.0,2.0,2.0,2.0,2.0,2.0,100.0,11.0,1.0
108,3652123.0,10.0,123.0,Female,2.0,10-12,3.0,1.0,trial_12,,,,,5555.075,,,"{""FishSmall"":2,""FishBig"":2,""CanSmall"":0,""CanBig"":0,""Seaweed"":2}","{""FishSmall"":1,""FishBig"":1,""CanSmall"":1,""CanBig"":0,""Seaweed"":3}",0.0,0.0,10.0,3.333333333333333,8.16496580927726,9.428090415820634,2.0,3.0,-6.666666666666666,1.2631246065433732,1.0,0.0,"{""FishSmall"":1,""FishBig"":2,""CanSmall"":0,""CanBig"":0,""Seaweed"":0}","{""FishSmall"":0,""FishBig"":1,""CanSmall"":1,""CanBig"":1,""Seaweed"":0}",1.0,1227.9064999893308,1.0,2.0,2.0,2.0,2.0,2.0,2.0,2.0,2.0,2.0,2.0,2.0,2.0,2.0,100.0,12.0,1.0
109,3652123.0,10.0,123.0,Female,2.0,10-12,3.0,1.0,trial_13,,,1.0,,1373.785,,1802.11,"{""FishSmall"":2,""FishBig"":0,""CanSmall"":3,""CanBig"":0,""Seaweed"":1}","{""FishSmall"":0,""FishBig"":0,""CanSmall"":3,""CanBig"":2,""Seaweed"":1}",0.0,100.0,-1.6666666666666667,-11.666666666666666,8.975274678557506,6.871842709362768,1.0,1.0,-10.0,-2.1034319691947383,0.0,100.0,"{""FishSmall"":2,""FishBig"":0,""CanSmall"":1,""CanBig"":0,""Seaweed"":0}","{""FishSmall"":0,""FishBig"":0,""CanSmall"":2,""CanBig"":1,""Seaweed"":0}",1.0,1227.9064999893308,1.0,2.0,2.0,2.0,2.0,2.0,2.0,2.0,2.0,2.0,2.0,2.0,2.0,2.0,100.0,13.0,1.0
110,3652123.0,10.0,123.0,Female,2.0,10-12,3.0,1.0,trial_14,,1.0,0.0,,1736.085,4120.305,2865.935,"{""FishSmall"":0,""FishBig"":0,""CanSmall"":3,""CanBig"":2,""Seaweed"":1}","{""FishSmall"":0,""FishBig"":0,""CanSmall"":1,""CanBig"":2,""Seaweed"":3}",50.0,50.0,-11.666666666666666,-8.333333333333334,6.871842709362768,8.975274678557506,1.0,3.0,3.333333333333332,2.1034319691947383,2.0,0.0,"{""FishSmall"":1,""FishBig"":0,""CanSmall"":1,""CanBig"":1,""Seaweed"":0}","{""FishSmall"":2,""FishBig"":0,""CanSmall"":1,""CanBig"":0,""Seaweed"":0}",1.0,1227.9064999893308,1.0,2.0,2.0,2.0,2.0,2.0,2.0,2.0,2.0,2.0,2.0,2.0,2.0,2.0,100.0,14.0,1.0
111,3652123.0,10.0,123.0,Female,2.0,10-12,3.0,1.0,trial_15,,,0.0,,2032.585,,1624.13,"{""FishSmall"":0,""FishBig"":0,""CanSmall"":1,""CanBig"":4,""Seaweed"":1}","{""FishSmall"":2,""FishBig"":2,""CanSmall"":0,""CanBig"":0,""Seaweed"":2}",0.0,100.0,-15.0,10.0,7.637626158259733,8.16496580927726,1.0,2.0,25.0,0.5273396510175274,1.0,100.0,"{""FishSmall"":1,""FishBig"":0,""CanSmall"":1,""CanBig"":1,""Seaweed"":0}","{""FishSmall"":2,""FishBig"":1,""CanSmall"":0,""CanBig"":0,""Seaweed"":0}",1.0,1227.9064999893308,1.0,2.0,2.0,2.0,2.0,2.0,2.0,2.0,2.0,2.0,2.0,2.0,2.0,2.0,100.0,15.0,1.0
112,3652123.0,10.0,123.0,Female,2.0,10-12,3.0,0.0,trial_16,,,,,2677.075,,,"{""FishSmall"":2,""FishBig"":0,""CanSmall"":3,""CanBig"":0,""Seaweed"":1}","{""FishSmall"":5,""FishBig"":1,""CanSmall"":0,""CanBig"":0,""Seaweed"":0}",0.0,0.0,-1.6666666666666667,11.666666666666666,8.975274678557506,3.72677996249965,1.0,0.0,13.333333333333332,-5.248494716057856,-1.0,0.0,"{""FishSmall"":0,""FishBig"":1,""CanSmall"":2,""CanBig"":0,""Seaweed"":0}","{""FishSmall"":3,""FishBig"":0,""CanSmall"":0,""CanBig"":0,""Seaweed"":0}",1.0,1227.9064999893308,1.0,2.0,2.0,2.0,2.0,2.0,2.0,2.0,2.0,2.0,2.0,2.0,2.0,2.0,100.0,16.0,1.0
113,3652123.0,10.0,123.0,Female,2.0,10-12,3.0,0.0,trial_17,,,,,817.735,,,"{""FishSmall"":1,""FishBig"":4,""CanSmall"":0,""CanBig"":0,""Seaweed"":1}","{""FishSmall"":0,""FishBig"":0,""CanSmall"":1,""CanBig"":3,""Seaweed"":2}",50.0,0.0,15.0,-11.666666666666666,7.637626158259733,8.975274678557506,1.0,2.0,-26.666666666666664,1.3376485202977726,1.0,-50.0,"{""FishSmall"":0,""FishBig"":3,""CanSmall"":0,""CanBig"":0,""Seaweed"":0}","{""FishSmall"":0,""FishBig"":0,""CanSmall"":1,""CanBig"":2,""Seaweed"":0}",1.0,1227.9064999893308,1.0,2.0,2.0,2.0,2.0,2.0,2.0,2.0,2.0,2.0,2.0,2.0,2.0,2.0,100.0,17.0,1.0
114,3652123.0,10.0,123.0,Female,2.0,10-12,3.0,1.0,trial_18,,,1.0,,1127.465,,1500.3,"{""FishSmall"":1,""FishBig"":0,""CanSmall"":2,""CanBig"":1,""Seaweed"":2}","{""FishSmall"":2,""FishBig"":1,""CanSmall"":1,""CanBig"":0,""Seaweed"":2}",0.0,50.0,-5.0,5.0,9.57427107756338,9.57427107756338,2.0,2.0,10.0,0.0,0.0,50.0,"{""FishSmall"":1,""FishBig"":0,""CanSmall"":2,""CanBig"":0,""Seaweed"":0}","{""FishSmall"":1,""FishBig"":0,""CanSmall"":1,""CanBig"":1,""Seaweed"":0}",1.0,1227.9064999893308,1.0,2.0,2.0,2.0,2.0,2.0,2.0,2.0,2.0,2.0,2.0,2.0,2.0,2.0,100.0,18.0,1.0
115,3652123.0,10.0,123.0,Female,2.0,10-12,3.0,0.0,trial_19,,1.0,,,2720.925,2929.075,,"{""FishSmall"":0,""FishBig"":0,""CanSmall"":3,""CanBig"":1,""Seaweed"":2}","{""FishSmall"":4,""FishBig"":1,""CanSmall"":1,""CanBig"":0,""Seaweed"":0}",50.0,0.0,-8.333333333333334,8.333333333333334,6.871842709362768,8.975274678557506,2.0,0.0,16.666666666666668,2.1034319691947383,-2.0,-50.0,"{""FishSmall"":0,""FishBig"":0,""CanSmall"":1,""CanBig"":2,""Seaweed"":0}","{""FishSmall"":2,""FishBig"":0,""CanSmall"":1,""CanBig"":0,""Seaweed"":0}",1.0,1227.9064999893308,1.0,2.0,2.0,2.0,2.0,2.0,2.0,2.0,2.0,2.0,2.0,2.0,2.0,2.0,100.0,19.0,1.0
116,3652123.0,10.0,123.0,Female,2.0,10-12,3.0,0.0,trial_20,,,,,1469.7,,,"{""FishSmall"":3,""FishBig"":1,""CanSmall"":0,""CanBig"":0,""Seaweed"":2}","{""FishSmall"":2,""FishBig"":0,""CanSmall"":1,""CanBig"":0,""Seaweed"":3}",50.0,50.0,8.333333333333334,1.6666666666666667,6.871842709362768,6.871842709362768,2.0,3.0,-6.666666666666667,0.0,1.0,0.0,"{""FishSmall"":1,""FishBig"":1,""CanSmall"":0,""CanBig"":1,""Seaweed"":0}","{""FishSmall"":1,""FishBig"":0,""CanSmall"":1,""CanBig"":1,""Seaweed"":0}",1.0,1227.9064999893308,1.0,2.0,2.0,2.0,2.0,2.0,2.0,2.0,2.0,2.0,2.0,2.0,2.0,2.0,100.0,20.0,1.0
117,3652123.0,10.0,123.0,Female,2.0,10-12,3.0,,catch_2,1.0,,,1600.06,,,,"{""FishSmall"":0,""FishBig"":0,""CanSmall"":3,""CanBig"":3,""Seaweed"":0}","{""FishSmall"":0,""FishBig"":0,""CanSmall"":3,""CanBig"":3,""Seaweed"":0}",0.0,0.0,,,,,,,,,,,"{""FishSmall"":0,""FishBig"":0,""CanSmall"":1,""CanBig"":2,""Seaweed"":0}","{""FishSmall"":0,""FishBig"":0,""CanSmall"":2,""CanBig"":1,""Seaweed"":0}",1.0,1227.9064999893308,1.0,2.0,2.0,2.0,2.0,2.0,2.0,2.0,2.0,2.0,2.0,2.0,2.0,2.0,100.0,,1.0
118,3652123.0,10.0,123.0,Female,2.0,10-12,3.0,0.0,trial_21,,,1.0,,3866.42,,1744.375,"{""FishSmall"":3,""FishBig"":0,""CanSmall"":2,""CanBig"":0,""Seaweed"":1}","{""FishSmall"":0,""FishBig"":0,""CanSmall"":3,""CanBig"":3,""Seaweed"":0}",0.0,50.0,1.6666666666666667,-15.0,8.975274678557506,5.0,1.0,0.0,-16.666666666666668,-3.975274678557506,-1.0,50.0,"{""FishSmall"":3,""FishBig"":0,""CanSmall"":0,""CanBig"":0,""Seaweed"":0}","{""FishSmall"":0,""FishBig"":0,""CanSmall"":1,""CanBig"":2,""Seaweed"":0}",1.0,1227.9064999893308,1.0,2.0,2.0,2.0,2.0,2.0,2.0,2.0,2.0,2.0,2.0,2.0,2.0,2.0,100.0,21.0,1.0
119,3652123.0,10.0,123.0,Female,2.0,10-12,3.0,0.0,trial_22,,,1.0,,4449.1,,3251.76,"{""FishSmall"":2,""FishBig"":1,""CanSmall"":0,""CanBig"":0,""Seaweed"":3}","{""FishSmall"":0,""FishBig"":0,""CanSmall"":4,""CanBig"":0,""Seaweed"":2}",50.0,50.0,6.666666666666667,-6.666666666666667,7.453559924999299,4.714045207910317,3.0,2.0,-13.333333333333334,-2.7395147170889818,-1.0,0.0,"{""FishSmall"":0,""FishBig"":1,""CanSmall"":1,""CanBig"":1,""Seaweed"":0}","{""FishSmall"":0,""FishBig"":1,""CanSmall"":2,""CanBig"":0,""Seaweed"":0}",1.0,1227.9064999893308,1.0,2.0,2.0,2.0,2.0,2.0,2.0,2.0,2.0,2.0,2.0,2.0,2.0,2.0,100.0,22.0,1.0
120,3652123.0,10.0,123.0,Female,2.0,10-12,3.0,1.0,trial_23,,1.0,0.0,,2270.215,3722.355,2692.165,"{""FishSmall"":2,""FishBig"":0,""CanSmall"":3,""CanBig"":0,""Seaweed"":1}","{""FishSmall"":2,""FishBig"":1,""CanSmall"":1,""CanBig"":0,""Seaweed"":2}",100.0,50.0,-1.6666666666666667,5.0,8.975274678557506,9.57427107756338,1.0,2.0,6.666666666666667,0.5989963990058751,1.0,-50.0,"{""FishSmall"":2,""FishBig"":0,""CanSmall"":1,""CanBig"":0,""Seaweed"":0}","{""FishSmall"":0,""FishBig"":2,""CanSmall"":1,""CanBig"":0,""Seaweed"":0}",1.0,1227.9064999893308,1.0,2.0,2.0,2.0,2.0,2.0,2.0,2.0,2.0,2.0,2.0,2.0,2.0,2.0,100.0,23.0,1.0
121,3652123.0,10.0,123.0,Female,2.0,10-12,3.0,0.0,trial_24,,0.0,1.0,,1490.52,1651.755,3762.685,"{""FishSmall"":1,""FishBig"":3,""CanSmall"":0,""CanBig"":0,""Seaweed"":2}","{""FishSmall"":1,""FishBig"":0,""CanSmall"":3,""CanBig"":1,""Seaweed"":1}",100.0,50.0,11.666666666666666,-6.666666666666667,8.975274678557506,9.428090415820632,2.0,1.0,-18.33333333333333,0.4528157372631263,-1.0,-50.0,"{""FishSmall"":1,""FishBig"":1,""CanSmall"":1,""CanBig"":0,""Seaweed"":0}","{""FishSmall"":1,""FishBig"":0,""CanSmall"":2,""CanBig"":0,""Seaweed"":0}",1.0,1227.9064999893308,1.0,2.0,2.0,2.0,2.0,2.0,2.0,2.0,2.0,2.0,2.0,2.0,2.0,2.0,100.0,24.0,1.0
122,3652123.0,10.0,123.0,Female,2.0,10-12,3.0,0.0,trial_25,,0.0,,,2717.675,2716.82,,"{""FishSmall"":2,""FishBig"":0,""CanSmall"":2,""CanBig"":0,""Seaweed"":2}","{""FishSmall"":1,""FishBig"":0,""CanSmall"":1,""CanBig"":1,""Seaweed"":3}",50.0,0.0,0.0,-3.333333333333333,8.16496580927726,9.428090415820634,2.0,3.0,-3.333333333333333,1.2631246065433732,1.0,-50.0,"{""FishSmall"":2,""FishBig"":0,""CanSmall"":1,""CanBig"":0,""Seaweed"":0}","{""FishSmall"":1,""FishBig"":0,""CanSmall"":1,""CanBig"":1,""Seaweed"":0}",1.0,1227.9064999893308,1.0,2.0,2.0,2.0,2.0,2.0,2.0,2.0,2.0,2.0,2.0,2.0,2.0,2.0,100.0,25.0,1.0
123,3652123.0,10.0,123.0,Female,2.0,10-12,3.0,0.0,trial_26,,0.0,1.0,,1387.635,1660.525,6663.24,"{""FishSmall"":1,""FishBig"":4,""CanSmall"":0,""CanBig"":0,""Seaweed"":1}","{""FishSmall"":1,""FishBig"":0,""CanSmall"":2,""CanBig"":1,""Seaweed"":2}",50.0,100.0,15.0,-5.0,7.637626158259733,9.57427107756338,1.0,2.0,-20.0,1.936644919303648,1.0,50.0,"{""FishSmall"":1,""FishBig"":2,""CanSmall"":0,""CanBig"":0,""Seaweed"":0}","{""FishSmall"":2,""FishBig"":0,""CanSmall"":1,""CanBig"":0,""Seaweed"":0}",1.0,1227.9064999893308,1.0,2.0,2.0,2.0,2.0,2.0,2.0,2.0,2.0,2.0,2.0,2.0,2.0,2.0,100.0,26.0,1.0
124,3652123.0,10.0,123.0,Female,2.0,10-12,3.0,0.0,trial_27,,1.0,,,3514.54,2597.005,,"{""FishSmall"":2,""FishBig"":2,""CanSmall"":0,""CanBig"":0,""Seaweed"":2}","{""FishSmall"":1,""FishBig"":0,""CanSmall"":3,""CanBig"":1,""Seaweed"":1}",100.0,0.0,10.0,-6.666666666666667,8.16496580927726,9.428090415820632,2.0,1.0,-16.666666666666668,1.2631246065433714,-1.0,-100.0,"{""FishSmall"":0,""FishBig"":1,""CanSmall"":1,""CanBig"":1,""Seaweed"":0}","{""FishSmall"":1,""FishBig"":0,""CanSmall"":2,""CanBig"":0,""Seaweed"":0}",1.0,1227.9064999893308,1.0,2.0,2.0,2.0,2.0,2.0,2.0,2.0,2.0,2.0,2.0,2.0,2.0,2.0,100.0,27.0,1.0
125,3652123.0,10.0,123.0,Female,2.0,10-12,3.0,1.0,trial_28,,,0.0,,867.795,,2904.47,"{""FishSmall"":0,""FishBig"":0,""CanSmall"":4,""CanBig"":0,""Seaweed"":2}","{""FishSmall"":1,""FishBig"":1,""CanSmall"":1,""CanBig"":0,""Seaweed"":3}",0.0,100.0,-6.666666666666667,3.333333333333333,4.714045207910317,9.428090415820634,2.0,3.0,10.0,4.714045207910317,1.0,100.0,"{""FishSmall"":1,""FishBig"":0,""CanSmall"":2,""CanBig"":0,""Seaweed"":0}","{""FishSmall"":0,""FishBig"":2,""CanSmall"":1,""CanBig"":0,""Seaweed"":0}",1.0,1227.9064999893308,1.0,2.0,2.0,2.0,2.0,2.0,2.0,2.0,2.0,2.0,2.0,2.0,2.0,2.0,100.0,28.0,1.0
126,3652123.0,10.0,123.0,Female,2.0,10-12,3.0,0.0,trial_29,,,,,4160.21,,,"{""FishSmall"":1,""FishBig"":2,""CanSmall"":0,""CanBig"":0,""Seaweed"":3}","{""FishSmall"":1,""FishBig"":0,""CanSmall"":3,""CanBig"":1,""Seaweed"":1}",0.0,50.0,8.333333333333334,-6.666666666666667,8.975274678557506,9.428090415820632,3.0,1.0,-15.0,0.4528157372631263,-2.0,50.0,"{""FishSmall"":2,""FishBig"":1,""CanSmall"":0,""CanBig"":0,""Seaweed"":0}","{""FishSmall"":1,""FishBig"":1,""CanSmall"":0,""CanBig"":1,""Seaweed"":0}",1.0,1227.9064999893308,1.0,2.0,2.0,2.0,2.0,2.0,2.0,2.0,2.0,2.0,2.0,2.0,2.0,2.0,100.0,29.0,1.0
127,3652123.0,10.0,123.0,Female,2.0,10-12,3.0,0.0,trial_30,,0.0,0.0,,4238.2,2106.85,2237.28,"{""FishSmall"":2,""FishBig"":1,""CanSmall"":0,""CanBig"":0,""Seaweed"":3}","{""FishSmall"":2,""FishBig"":0,""CanSmall"":1,""CanBig"":0,""Seaweed"":3}",100.0,100.0,6.666666666666667,1.6666666666666667,7.453559924999299,6.871842709362768,3.0,3.0,-5.0,-0.5817172156365311,0.0,0.0,"{""FishSmall"":2,""FishBig"":1,""CanSmall"":0,""CanBig"":0,""Seaweed"":0}","{""FishSmall"":1,""FishBig"":1,""CanSmall"":1,""CanBig"":0,""Seaweed"":0}",1.0,1227.9064999893308,1.0,2.0,2.0,2.0,2.0,2.0,2.0,2.0,2.0,2.0,2.0,2.0,2.0,2.0,100.0,30.0,1.0
128,3652062.0,5.0,68.0,Male,1.0,4-5,0.0,1.0,trial_1,,,,,17980.16,,,"{""FishSmall"":1,""FishBig"":0,""CanSmall"":2,""CanBig"":1,""Seaweed"":2}","{""FishSmall"":2,""FishBig"":2,""CanSmall"":0,""CanBig"":0,""Seaweed"":2}",0.0,0.0,-5.0,10.0,9.57427107756338,8.16496580927726,2.0,2.0,15.0,-1.4093052682861202,0.0,0.0,"{""FishSmall"":0,""FishBig"":1,""CanSmall"":1,""CanBig"":1,""Seaweed"":0}","{""FishSmall"":1,""FishBig"":0,""CanSmall"":2,""CanBig"":0,""Seaweed"":0}",0.8,4918.8124999869615,0.7692307692307693,2.0,1.0,2.0,2.0,2.0,1.0,1.0,1.0,2.0,1.0,1.0,2.0,2.0,100.0,1.0,0.3214285714285714
129,3652062.0,5.0,68.0,Male,1.0,4-5,0.0,0.0,trial_2,,,,,38373.23,,,"{""FishSmall"":2,""FishBig"":1,""CanSmall"":0,""CanBig"":0,""Seaweed"":3}","{""FishSmall"":0,""FishBig"":0,""CanSmall"":0,""CanBig"":6,""Seaweed"":0}",50.0,50.0,6.666666666666667,-20.0,7.453559924999299,0.0,3.0,0.0,-26.666666666666668,-7.453559924999299,-3.0,0.0,"{""FishSmall"":1,""FishBig"":2,""CanSmall"":0,""CanBig"":0,""Seaweed"":0}","{""FishSmall"":0,""FishBig"":0,""CanSmall"":0,""CanBig"":3,""Seaweed"":0}",0.8,4918.8124999869615,0.7692307692307693,2.0,1.0,2.0,2.0,2.0,1.0,1.0,1.0,2.0,1.0,1.0,2.0,2.0,100.0,2.0,0.3214285714285714
130,3652062.0,5.0,68.0,Male,1.0,4-5,0.0,1.0,trial_3,,0.0,0.0,,22311.75,9889.87,16543.975,"{""FishSmall"":4,""FishBig"":0,""CanSmall"":1,""CanBig"":0,""Seaweed"":1}","{""FishSmall"":1,""FishBig"":0,""CanSmall"":3,""CanBig"":0,""Seaweed"":2}",100.0,100.0,5.0,-3.333333333333333,7.637626158259733,7.453559924999299,1.0,2.0,-8.333333333333334,-0.1840662332604346,1.0,0.0,"{""FishSmall"":2,""FishBig"":0,""CanSmall"":1,""CanBig"":0,""Seaweed"":0}","{""FishSmall"":1,""FishBig"":0,""CanSmall"":1,""CanBig"":1,""Seaweed"":0}",0.8,4918.8124999869615,0.7692307692307693,2.0,1.0,2.0,2.0,2.0,1.0,1.0,1.0,2.0,1.0,1.0,2.0,2.0,100.0,3.0,0.3214285714285714
131,3652062.0,5.0,68.0,Male,1.0,4-5,0.0,0.0,trial_4,,,,,9618.31,,,"{""FishSmall"":1,""FishBig"":0,""CanSmall"":4,""CanBig"":0,""Seaweed"":1}","{""FishSmall"":2,""FishBig"":1,""CanSmall"":1,""CanBig"":0,""Seaweed"":2}",50.0,50.0,-5.0,5.0,7.637626158259733,9.57427107756338,1.0,2.0,10.0,1.936644919303648,1.0,0.0,"{""FishSmall"":1,""FishBig"":0,""CanSmall"":2,""CanBig"":0,""Seaweed"":0}","{""FishSmall"":0,""FishBig"":0,""CanSmall"":3,""CanBig"":0,""Seaweed"":0}",0.8,4918.8124999869615,0.7692307692307693,2.0,1.0,2.0,2.0,2.0,1.0,1.0,1.0,2.0,1.0,1.0,2.0,2.0,100.0,4.0,0.3214285714285714
132,3652062.0,5.0,68.0,Male,1.0,4-5,0.0,1.0,trial_5,,,0.0,,14098.085,,22176.96,"{""FishSmall"":2,""FishBig"":0,""CanSmall"":3,""CanBig"":0,""Seaweed"":1}","{""FishSmall"":4,""FishBig"":0,""CanSmall"":2,""CanBig"":0,""Seaweed"":0}",50.0,50.0,-1.6666666666666667,3.333333333333333,8.975274678557506,9.428090415820634,1.0,0.0,5.0,0.452815737263128,-1.0,0.0,"{""FishSmall"":0,""FishBig"":0,""CanSmall"":2,""CanBig"":1,""Seaweed"":0}","{""FishSmall"":2,""FishBig"":0,""CanSmall"":1,""CanBig"":0,""Seaweed"":0}",0.8,4918.8124999869615,0.7692307692307693,2.0,1.0,2.0,2.0,2.0,1.0,1.0,1.0,2.0,1.0,1.0,2.0,2.0,100.0,5.0,0.3214285714285714
133,3652062.0,5.0,68.0,Male,1.0,4-5,0.0,0.0,trial_6,,0.0,0.0,,11238.355,16544.715,4530.555,"{""FishSmall"":0,""FishBig"":0,""CanSmall"":3,""CanBig"":1,""Seaweed"":2}","{""FishSmall"":1,""FishBig"":0,""CanSmall"":1,""CanBig"":1,""Seaweed"":3}",100.0,100.0,-8.333333333333334,-3.333333333333333,6.871842709362768,9.428090415820634,2.0,3.0,5.0,2.5562477064578664,1.0,0.0,"{""FishSmall"":0,""FishBig"":0,""CanSmall"":3,""CanBig"":0,""Seaweed"":0}","{""FishSmall"":1,""FishBig"":0,""CanSmall"":2,""CanBig"":0,""Seaweed"":0}",0.8,4918.8124999869615,0.7692307692307693,2.0,1.0,2.0,2.0,2.0,1.0,1.0,1.0,2.0,1.0,1.0,2.0,2.0,100.0,6.0,0.3214285714285714
134,3652062.0,5.0,68.0,Male,1.0,4-5,0.0,0.0,trial_7,,,0.0,,48736.22,,61521.13,"{""FishSmall"":3,""FishBig"":1,""CanSmall"":1,""CanBig"":0,""Seaweed"":1}","{""FishSmall"":1,""FishBig"":0,""CanSmall"":1,""CanBig"":1,""Seaweed"":3}",50.0,50.0,6.666666666666667,-3.333333333333333,9.428090415820634,9.428090415820634,1.0,3.0,-10.0,0.0,2.0,0.0,"{""FishSmall"":2,""FishBig"":0,""CanSmall"":0,""CanBig"":1,""Seaweed"":0}","{""FishSmall"":1,""FishBig"":0,""CanSmall"":1,""CanBig"":1,""Seaweed"":0}",0.8,4918.8124999869615,0.7692307692307693,2.0,1.0,2.0,2.0,2.0,1.0,1.0,1.0,2.0,1.0,1.0,2.0,2.0,100.0,7.0,0.3214285714285714
135,3652062.0,5.0,68.0,Male,1.0,4-5,0.0,0.0,trial_8,,0.0,0.0,,35468.335,12585.59,12645.615,"{""FishSmall"":0,""FishBig"":0,""CanSmall"":2,""CanBig"":2,""Seaweed"":2}","{""FishSmall"":1,""FishBig"":0,""CanSmall"":3,""CanBig"":1,""Seaweed"":1}",50.0,100.0,-10.0,-6.666666666666667,8.16496580927726,9.428090415820632,2.0,1.0,3.333333333333333,1.2631246065433714,-1.0,50.0,"{""FishSmall"":0,""FishBig"":1,""CanSmall"":1,""CanBig"":1,""Seaweed"":0}","{""FishSmall"":1,""FishBig"":0,""CanSmall"":1,""CanBig"":1,""Seaweed"":0}",0.8,4918.8124999869615,0.7692307692307693,2.0,1.0,2.0,2.0,2.0,1.0,1.0,1.0,2.0,1.0,1.0,2.0,2.0,100.0,8.0,0.3214285714285714
136,3652062.0,5.0,68.0,Male,1.0,4-5,0.0,1.0,trial_9,,0.0,0.0,,11874.185,21106.815,17385.0,"{""FishSmall"":0,""FishBig"":0,""CanSmall"":1,""CanBig"":2,""Seaweed"":3}","{""FishSmall"":3,""FishBig"":3,""CanSmall"":0,""CanBig"":0,""Seaweed"":0}",50.0,50.0,-8.333333333333334,15.0,8.975274678557506,5.0,3.0,0.0,23.333333333333336,-3.975274678557506,-3.0,0.0,"{""FishSmall"":0,""FishBig"":1,""CanSmall"":2,""CanBig"":0,""Seaweed"":0}","{""FishSmall"":3,""FishBig"":0,""CanSmall"":0,""CanBig"":0,""Seaweed"":0}",0.8,4918.8124999869615,0.7692307692307693,2.0,1.0,2.0,2.0,2.0,1.0,1.0,1.0,2.0,1.0,1.0,2.0,2.0,100.0,9.0,0.3214285714285714
137,3652062.0,5.0,68.0,Male,1.0,4-5,0.0,1.0,trial_10,,0.0,0.0,,12907.95,18078.19,16127.445,"{""FishSmall"":2,""FishBig"":0,""CanSmall"":1,""CanBig"":0,""Seaweed"":3}","{""FishSmall"":2,""FishBig"":2,""CanSmall"":0,""CanBig"":0,""Seaweed"":2}",50.0,100.0,1.6666666666666667,10.0,6.871842709362768,8.16496580927726,3.0,2.0,8.333333333333334,1.2931230999144931,-1.0,50.0,"{""FishSmall"":2,""FishBig"":0,""CanSmall"":1,""CanBig"":0,""Seaweed"":0}","{""FishSmall"":1,""FishBig"":2,""CanSmall"":0,""CanBig"":0,""Seaweed"":0}",0.8,4918.8124999869615,0.7692307692307693,2.0,1.0,2.0,2.0,2.0,1.0,1.0,1.0,2.0,1.0,1.0,2.0,2.0,100.0,10.0,0.3214285714285714
138,3652062.0,5.0,68.0,Male,1.0,4-5,0.0,,catch_1,0.0,,,9679.7,,,,"{""FishSmall"":4,""FishBig"":2,""CanSmall"":0,""CanBig"":0,""Seaweed"":0}","{""FishSmall"":4,""FishBig"":2,""CanSmall"":0,""CanBig"":0,""Seaweed"":0}",0.0,0.0,,,,,,,,,,,"{""FishSmall"":2,""FishBig"":1,""CanSmall"":0,""CanBig"":0,""Seaweed"":0}","{""FishSmall"":2,""FishBig"":1,""CanSmall"":0,""CanBig"":0,""Seaweed"":0}",0.8,4918.8124999869615,0.7692307692307693,2.0,1.0,2.0,2.0,2.0,1.0,1.0,1.0,2.0,1.0,1.0,2.0,2.0,100.0,,0.3214285714285714
139,3652062.0,5.0,68.0,Male,1.0,4-5,0.0,1.0,trial_11,,,,,7116.875,,,"{""FishSmall"":2,""FishBig"":1,""CanSmall"":1,""CanBig"":0,""Seaweed"":2}","{""FishSmall"":4,""FishBig"":2,""CanSmall"":0,""CanBig"":0,""Seaweed"":0}",0.0,50.0,5.0,13.333333333333334,9.57427107756338,4.714045207910316,2.0,0.0,8.333333333333334,-4.860225869653065,-2.0,50.0,"{""FishSmall"":1,""FishBig"":1,""CanSmall"":1,""CanBig"":0,""Seaweed"":0}","{""FishSmall"":2,""FishBig"":1,""CanSmall"":0,""CanBig"":0,""Seaweed"":0}",0.8,4918.8124999869615,0.7692307692307693,2.0,1.0,2.0,2.0,2.0,1.0,1.0,1.0,2.0,1.0,1.0,2.0,2.0,100.0,11.0,0.3214285714285714
140,3652062.0,5.0,68.0,Male,1.0,4-5,0.0,1.0,trial_12,,,,,7744.315,,,"{""FishSmall"":4,""FishBig"":0,""CanSmall"":1,""CanBig"":0,""Seaweed"":1}","{""FishSmall"":1,""FishBig"":0,""CanSmall"":1,""CanBig"":1,""Seaweed"":3}",50.0,50.0,5.0,-3.333333333333333,7.637626158259733,9.428090415820634,1.0,3.0,-8.333333333333334,1.7904642575609009,2.0,0.0,"{""FishSmall"":3,""FishBig"":0,""CanSmall"":0,""CanBig"":0,""Seaweed"":0}","{""FishSmall"":0,""FishBig"":2,""CanSmall"":1,""CanBig"":0,""Seaweed"":0}",0.8,4918.8124999869615,0.7692307692307693,2.0,1.0,2.0,2.0,2.0,1.0,1.0,1.0,2.0,1.0,1.0,2.0,2.0,100.0,12.0,0.3214285714285714
141,3652062.0,5.0,68.0,Male,1.0,4-5,0.0,1.0,trial_13,,0.0,,,9771.81,6032.435,,"{""FishSmall"":1,""FishBig"":2,""CanSmall"":0,""CanBig"":0,""Seaweed"":3}","{""FishSmall"":3,""FishBig"":0,""CanSmall"":0,""CanBig"":0,""Seaweed"":3}",100.0,50.0,8.333333333333334,5.0,8.975274678557506,5.0,3.0,3.0,-3.333333333333334,-3.975274678557506,0.0,-50.0,"{""FishSmall"":1,""FishBig"":1,""CanSmall"":0,""CanBig"":1,""Seaweed"":0}","{""FishSmall"":3,""FishBig"":0,""CanSmall"":0,""CanBig"":0,""Seaweed"":0}",0.8,4918.8124999869615,0.7692307692307693,2.0,1.0,2.0,2.0,2.0,1.0,1.0,1.0,2.0,1.0,1.0,2.0,2.0,100.0,13.0,0.3214285714285714
142,3652062.0,5.0,68.0,Male,1.0,4-5,0.0,1.0,trial_14,,,,,2596.565,,,"{""FishSmall"":1,""FishBig"":0,""CanSmall"":4,""CanBig"":0,""Seaweed"":1}","{""FishSmall"":2,""FishBig"":1,""CanSmall"":1,""CanBig"":0,""Seaweed"":2}",0.0,0.0,-5.0,5.0,7.637626158259733,9.57427107756338,1.0,2.0,10.0,1.936644919303648,1.0,0.0,"{""FishSmall"":0,""FishBig"":0,""CanSmall"":3,""CanBig"":0,""Seaweed"":0}","{""FishSmall"":2,""FishBig"":0,""CanSmall"":1,""CanBig"":0,""Seaweed"":0}",0.8,4918.8124999869615,0.7692307692307693,2.0,1.0,2.0,2.0,2.0,1.0,1.0,1.0,2.0,1.0,1.0,2.0,2.0,100.0,14.0,0.3214285714285714
143,3652062.0,5.0,68.0,Male,1.0,4-5,0.0,1.0,trial_15,,0.0,,,3785.625,11412.79,,"{""FishSmall"":3,""FishBig"":0,""CanSmall"":2,""CanBig"":0,""Seaweed"":1}","{""FishSmall"":0,""FishBig"":0,""CanSmall"":2,""CanBig"":3,""Seaweed"":1}",100.0,0.0,1.6666666666666667,-13.333333333333334,8.975274678557506,7.453559924999299,1.0,1.0,-15.0,-1.5217147535582072,0.0,-100.0,"{""FishSmall"":2,""FishBig"":0,""CanSmall"":1,""CanBig"":0,""Seaweed"":0}","{""FishSmall"":1,""FishBig"":0,""CanSmall"":1,""CanBig"":1,""Seaweed"":0}",0.8,4918.8124999869615,0.7692307692307693,2.0,1.0,2.0,2.0,2.0,1.0,1.0,1.0,2.0,1.0,1.0,2.0,2.0,100.0,15.0,0.3214285714285714
144,3652062.0,5.0,68.0,Male,1.0,4-5,0.0,1.0,trial_16,,,0.0,,10749.535,,9408.235,"{""FishSmall"":0,""FishBig"":0,""CanSmall"":4,""CanBig"":1,""Seaweed"":1}","{""FishSmall"":1,""FishBig"":0,""CanSmall"":2,""CanBig"":1,""Seaweed"":2}",50.0,100.0,-10.0,-5.0,5.773502691896258,9.57427107756338,1.0,2.0,5.0,3.800768385667123,1.0,50.0,"{""FishSmall"":0,""FishBig"":1,""CanSmall"":2,""CanBig"":0,""Seaweed"":0}","{""FishSmall"":0,""FishBig"":0,""CanSmall"":2,""CanBig"":1,""Seaweed"":0}",0.8,4918.8124999869615,0.7692307692307693,2.0,1.0,2.0,2.0,2.0,1.0,1.0,1.0,2.0,1.0,1.0,2.0,2.0,100.0,16.0,0.3214285714285714
145,3652062.0,5.0,68.0,Male,1.0,4-5,0.0,1.0,trial_17,,0.0,,,12162.355,7658.15,,"{""FishSmall"":0,""FishBig"":0,""CanSmall"":3,""CanBig"":1,""Seaweed"":2}","{""FishSmall"":1,""FishBig"":1,""CanSmall"":1,""CanBig"":0,""Seaweed"":3}",50.0,0.0,-8.333333333333334,3.333333333333333,6.871842709362768,9.428090415820634,2.0,3.0,11.666666666666668,2.5562477064578664,1.0,-50.0,"{""FishSmall"":0,""FishBig"":0,""CanSmall"":3,""CanBig"":0,""Seaweed"":0}","{""FishSmall"":2,""FishBig"":0,""CanSmall"":1,""CanBig"":0,""Seaweed"":0}",0.8,4918.8124999869615,0.7692307692307693,2.0,1.0,2.0,2.0,2.0,1.0,1.0,1.0,2.0,1.0,1.0,2.0,2.0,100.0,17.0,0.3214285714285714
146,3652062.0,5.0,68.0,Male,1.0,4-5,0.0,1.0,trial_18,,0.0,,,9962.73,8242.735,,"{""FishSmall"":1,""FishBig"":0,""CanSmall"":1,""CanBig"":1,""Seaweed"":3}","{""FishSmall"":2,""FishBig"":0,""CanSmall"":3,""CanBig"":0,""Seaweed"":1}",100.0,0.0,-3.333333333333333,-1.6666666666666667,9.428090415820634,8.975274678557506,3.0,1.0,1.6666666666666667,-0.452815737263128,-2.0,-100.0,"{""FishSmall"":1,""FishBig"":0,""CanSmall"":1,""CanBig"":1,""Seaweed"":0}","{""FishSmall"":1,""FishBig"":1,""CanSmall"":1,""CanBig"":0,""Seaweed"":0}",0.8,4918.8124999869615,0.7692307692307693,2.0,1.0,2.0,2.0,2.0,1.0,1.0,1.0,2.0,1.0,1.0,2.0,2.0,100.0,18.0,0.3214285714285714
147,3652062.0,5.0,68.0,Male,1.0,4-5,0.0,0.0,trial_19,,,,,2878.95,,,"{""FishSmall"":1,""FishBig"":0,""CanSmall"":2,""CanBig"":0,""Seaweed"":3}","{""FishSmall"":4,""FishBig"":1,""CanSmall"":1,""CanBig"":0,""Seaweed"":0}",0.0,0.0,-1.6666666666666667,8.333333333333334,6.871842709362768,8.975274678557506,3.0,0.0,10.0,2.1034319691947383,-3.0,0.0,"{""FishSmall"":1,""FishBig"":0,""CanSmall"":2,""CanBig"":0,""Seaweed"":0}","{""FishSmall"":2,""FishBig"":0,""CanSmall"":1,""CanBig"":0,""Seaweed"":0}",0.8,4918.8124999869615,0.7692307692307693,2.0,1.0,2.0,2.0,2.0,1.0,1.0,1.0,2.0,1.0,1.0,2.0,2.0,100.0,19.0,0.3214285714285714
148,3652062.0,5.0,68.0,Male,1.0,4-5,0.0,0.0,trial_20,,,0.0,,11562.92,,4407.75,"{""FishSmall"":2,""FishBig"":0,""CanSmall"":2,""CanBig"":0,""Seaweed"":2}","{""FishSmall"":0,""FishBig"":0,""CanSmall"":2,""CanBig"":3,""Seaweed"":1}",0.0,100.0,0.0,-13.333333333333334,8.16496580927726,7.453559924999299,2.0,1.0,-13.333333333333334,-0.711405884277962,-1.0,100.0,"{""FishSmall"":2,""FishBig"":1,""CanSmall"":0,""CanBig"":0,""Seaweed"":0}","{""FishSmall"":1,""FishBig"":0,""CanSmall"":1,""CanBig"":1,""Seaweed"":0}",0.8,4918.8124999869615,0.7692307692307693,2.0,1.0,2.0,2.0,2.0,1.0,1.0,1.0,2.0,1.0,1.0,2.0,2.0,100.0,20.0,0.3214285714285714
149,3652062.0,5.0,68.0,Male,1.0,4-5,0.0,,catch_2,1.0,,,8003.5,,,,"{""FishSmall"":0,""FishBig"":0,""CanSmall"":3,""CanBig"":3,""Seaweed"":0}","{""FishSmall"":0,""FishBig"":0,""CanSmall"":3,""CanBig"":3,""Seaweed"":0}",0.0,0.0,,,,,,,,,,,"{""FishSmall"":0,""FishBig"":0,""CanSmall"":1,""CanBig"":2,""Seaweed"":0}","{""FishSmall"":0,""FishBig"":0,""CanSmall"":2,""CanBig"":1,""Seaweed"":0}",0.8,4918.8124999869615,0.7692307692307693,2.0,1.0,2.0,2.0,2.0,1.0,1.0,1.0,2.0,1.0,1.0,2.0,2.0,100.0,,0.3214285714285714
150,3652062.0,5.0,68.0,Male,1.0,4-5,0.0,0.0,trial_21,,0.0,0.0,,15134.125,5243.91,4836.09,"{""FishSmall"":1,""FishBig"":0,""CanSmall"":2,""CanBig"":1,""Seaweed"":2}","{""FishSmall"":1,""FishBig"":0,""CanSmall"":1,""CanBig"":1,""Seaweed"":3}",50.0,100.0,-5.0,-3.333333333333333,9.57427107756338,9.428090415820634,2.0,3.0,1.6666666666666663,-0.146180661742747,1.0,50.0,"{""FishSmall"":0,""FishBig"":0,""CanSmall"":0,""CanBig"":3,""Seaweed"":0}","{""FishSmall"":1,""FishBig"":1,""CanSmall"":1,""CanBig"":0,""Seaweed"":0}",0.8,4918.8124999869615,0.7692307692307693,2.0,1.0,2.0,2.0,2.0,1.0,1.0,1.0,2.0,1.0,1.0,2.0,2.0,100.0,21.0,0.3214285714285714
151,3652062.0,5.0,68.0,Male,1.0,4-5,0.0,0.0,trial_22,,,0.0,,31096.24,,16728.475,"{""FishSmall"":4,""FishBig"":1,""CanSmall"":0,""CanBig"":0,""Seaweed"":1}","{""FishSmall"":0,""FishBig"":0,""CanSmall"":4,""CanBig"":0,""Seaweed"":2}",0.0,100.0,10.0,-6.666666666666667,5.773502691896258,4.714045207910317,1.0,2.0,-16.666666666666668,-1.0594574839859412,1.0,100.0,"{""FishSmall"":2,""FishBig"":1,""CanSmall"":0,""CanBig"":0,""Seaweed"":0}","{""FishSmall"":0,""FishBig"":0,""CanSmall"":3,""CanBig"":0,""Seaweed"":0}",0.8,4918.8124999869615,0.7692307692307693,2.0,1.0,2.0,2.0,2.0,1.0,1.0,1.0,2.0,1.0,1.0,2.0,2.0,100.0,22.0,0.3214285714285714
152,3652062.0,5.0,68.0,Male,1.0,4-5,0.0,0.0,trial_23,,,,,8571.07,,,"{""FishSmall"":2,""FishBig"":0,""CanSmall"":1,""CanBig"":0,""Seaweed"":3}","{""FishSmall"":1,""FishBig"":4,""CanSmall"":0,""CanBig"":0,""Seaweed"":1}",0.0,0.0,1.6666666666666667,15.0,6.871842709362768,7.637626158259733,3.0,1.0,13.333333333333334,0.7657834488969657,-2.0,0.0,"{""FishSmall"":2,""FishBig"":0,""CanSmall"":1,""CanBig"":0,""Seaweed"":0}","{""FishSmall"":0,""FishBig"":2,""CanSmall"":1,""CanBig"":0,""Seaweed"":0}",0.8,4918.8124999869615,0.7692307692307693,2.0,1.0,2.0,2.0,2.0,1.0,1.0,1.0,2.0,1.0,1.0,2.0,2.0,100.0,23.0,0.3214285714285714
153,3652062.0,5.0,68.0,Male,1.0,4-5,0.0,1.0,trial_24,,0.0,,,29988.9,8024.89,,"{""FishSmall"":0,""FishBig"":0,""CanSmall"":3,""CanBig"":2,""Seaweed"":1}","{""FishSmall"":3,""FishBig"":0,""CanSmall"":2,""CanBig"":0,""Seaweed"":1}",100.0,0.0,-11.666666666666666,1.6666666666666667,6.871842709362768,8.975274678557506,1.0,1.0,13.333333333333332,2.1034319691947383,0.0,-100.0,"{""FishSmall"":0,""FishBig"":0,""CanSmall"":2,""CanBig"":1,""Seaweed"":0}","{""FishSmall"":1,""FishBig"":0,""CanSmall"":1,""CanBig"":1,""Seaweed"":0}",0.8,4918.8124999869615,0.7692307692307693,2.0,1.0,2.0,2.0,2.0,1.0,1.0,1.0,2.0,1.0,1.0,2.0,2.0,100.0,24.0,0.3214285714285714
154,3652062.0,5.0,68.0,Male,1.0,4-5,0.0,0.0,trial_25,,0.0,,,2752.94,10322.54,,"{""FishSmall"":3,""FishBig"":0,""CanSmall"":2,""CanBig"":0,""Seaweed"":1}","{""FishSmall"":3,""FishBig"":1,""CanSmall"":1,""CanBig"":0,""Seaweed"":1}",100.0,50.0,1.6666666666666667,6.666666666666667,8.975274678557506,9.428090415820634,1.0,1.0,5.0,0.452815737263128,0.0,-50.0,"{""FishSmall"":2,""FishBig"":0,""CanSmall"":1,""CanBig"":0,""Seaweed"":0}","{""FishSmall"":1,""FishBig"":2,""CanSmall"":0,""CanBig"":0,""Seaweed"":0}",0.8,4918.8124999869615,0.7692307692307693,2.0,1.0,2.0,2.0,2.0,1.0,1.0,1.0,2.0,1.0,1.0,2.0,2.0,100.0,25.0,0.3214285714285714
155,3652062.0,5.0,68.0,Male,1.0,4-5,0.0,0.0,trial_26,,0.0,,,3118.26,11897.375,,"{""FishSmall"":4,""FishBig"":0,""CanSmall"":0,""CanBig"":0,""Seaweed"":2}","{""FishSmall"":2,""FishBig"":0,""CanSmall"":2,""CanBig"":0,""Seaweed"":2}",100.0,0.0,6.666666666666667,0.0,4.714045207910317,8.16496580927726,2.0,2.0,-6.666666666666667,3.450920601366944,0.0,-100.0,"{""FishSmall"":3,""FishBig"":0,""CanSmall"":0,""CanBig"":0,""Seaweed"":0}","{""FishSmall"":0,""FishBig"":0,""CanSmall"":2,""CanBig"":1,""Seaweed"":0}",0.8,4918.8124999869615,0.7692307692307693,2.0,1.0,2.0,2.0,2.0,1.0,1.0,1.0,2.0,1.0,1.0,2.0,2.0,100.0,26.0,0.3214285714285714
156,3652062.0,5.0,68.0,Male,1.0,4-5,0.0,0.0,trial_27,,,0.0,,13107.45,,4618.98,"{""FishSmall"":0,""FishBig"":0,""CanSmall"":2,""CanBig"":2,""Seaweed"":2}","{""FishSmall"":0,""FishBig"":0,""CanSmall"":1,""CanBig"":2,""Seaweed"":3}",50.0,100.0,-10.0,-8.333333333333334,8.16496580927726,8.975274678557506,2.0,3.0,1.666666666666666,0.8103088692802451,1.0,50.0,"{""FishSmall"":1,""FishBig"":0,""CanSmall"":0,""CanBig"":2,""Seaweed"":0}","{""FishSmall"":0,""FishBig"":0,""CanSmall"":2,""CanBig"":1,""Seaweed"":0}",0.8,4918.8124999869615,0.7692307692307693,2.0,1.0,2.0,2.0,2.0,1.0,1.0,1.0,2.0,1.0,1.0,2.0,2.0,100.0,27.0,0.3214285714285714
157,3652062.0,5.0,68.0,Male,1.0,4-5,0.0,0.0,trial_28,,,0.0,,8223.165,,15155.0,"{""FishSmall"":2,""FishBig"":1,""CanSmall"":1,""CanBig"":0,""Seaweed"":2}","{""FishSmall"":1,""FishBig"":0,""CanSmall"":3,""CanBig"":0,""Seaweed"":2}",0.0,100.0,5.0,-3.333333333333333,9.57427107756338,7.453559924999299,2.0,2.0,-8.333333333333334,-2.1207111525640823,0.0,100.0,"{""FishSmall"":2,""FishBig"":1,""CanSmall"":0,""CanBig"":0,""Seaweed"":0}","{""FishSmall"":0,""FishBig"":1,""CanSmall"":2,""CanBig"":0,""Seaweed"":0}",0.8,4918.8124999869615,0.7692307692307693,2.0,1.0,2.0,2.0,2.0,1.0,1.0,1.0,2.0,1.0,1.0,2.0,2.0,100.0,28.0,0.3214285714285714
158,3652062.0,5.0,68.0,Male,1.0,4-5,0.0,1.0,trial_29,,,0.0,,25373.19,,7134.32,"{""FishSmall"":3,""FishBig"":1,""CanSmall"":1,""CanBig"":0,""Seaweed"":1}","{""FishSmall"":1,""FishBig"":1,""CanSmall"":1,""CanBig"":0,""Seaweed"":3}",0.0,100.0,6.666666666666667,3.333333333333333,9.428090415820634,9.428090415820634,1.0,3.0,-3.333333333333333,0.0,2.0,100.0,"{""FishSmall"":2,""FishBig"":1,""CanSmall"":0,""CanBig"":0,""Seaweed"":0}","{""FishSmall"":1,""FishBig"":0,""CanSmall"":0,""CanBig"":2,""Seaweed"":0}",0.8,4918.8124999869615,0.7692307692307693,2.0,1.0,2.0,2.0,2.0,1.0,1.0,1.0,2.0,1.0,1.0,2.0,2.0,100.0,29.0,0.3214285714285714
159,3652062.0,5.0,68.0,Male,1.0,4-5,0.0,0.0,trial_30,,0.0,,,24852.625,32400.93,,"{""FishSmall"":0,""FishBig"":0,""CanSmall"":2,""CanBig"":2,""Seaweed"":2}","{""FishSmall"":4,""FishBig"":1,""CanSmall"":0,""CanBig"":0,""Seaweed"":1}",100.0,50.0,-10.0,10.0,8.16496580927726,5.773502691896258,2.0,1.0,20.0,-2.3914631173810026,-1.0,-50.0,"{""FishSmall"":1,""FishBig"":0,""CanSmall"":2,""CanBig"":0,""Seaweed"":0}","{""FishSmall"":3,""FishBig"":0,""CanSmall"":0,""CanBig"":0,""Seaweed"":0}",0.8,4918.8124999869615,0.7692307692307693,2.0,1.0,2.0,2.0,2.0,1.0,1.0,1.0,2.0,1.0,1.0,2.0,2.0,100.0,30.0,0.3214285714285714
160,3658574.0,4.0,,Female,2.0,4-5,0.0,0.0,trial_1,,0.0,,,1211.0,1274.0,,"{""FishSmall"":0,""FishBig"":0,""CanSmall"":5,""CanBig"":0,""Seaweed"":1}","{""FishSmall"":2,""FishBig"":1,""CanSmall"":0,""CanBig"":0,""Seaweed"":3}",100.0,50.0,-8.333333333333334,6.666666666666667,3.72677996249965,7.453559924999299,1.0,3.0,15.0,3.726779962499649,2.0,-50.0,"{""FishSmall"":1,""FishBig"":0,""CanSmall"":2,""CanBig"":0,""Seaweed"":0}","{""FishSmall"":1,""FishBig"":1,""CanSmall"":0,""CanBig"":1,""Seaweed"":0}",1.0,565.7000000001062,0.9230769230769232,2.0,2.0,2.0,2.0,2.0,2.0,1.0,2.0,2.0,2.0,1.0,2.0,2.0,100.0,1.0,0.7878787878787878
