subject_ID,age_in_years,gender,gender_coded,age_group,age_group_coded,info_choice,condition,catch_trials,fishing_choiceL,fishing_choiceR,RT_catch,RT_info_choice,RT_fishingL,RT_fishingR,items_countL,items_countR,agency_probL,agency_probR,EV_L,EV_R,SD_L,SD_R,uncertainty_level_L,uncertainty_level_R,delta_EV,delta_SD,delta_uncertainty_level,delta_agency,items_count_flashL,items_count_flashR,wob,avg_wob_RT,percent_comprehension,q1,q2,q3,q4,q5,q6,q7,q8,q9,q10,q11,q12,q13,catch_trials_score,trial_number,prop_correct_fishing
6729125.0,43,Female,2.0,Adults,4.0,1.0,trial_1,,1.0,1.0,,15986.20000000298,14317.79999999702,5052.79999999702,"{""FishSmall"":2,""FishBig"":0,""CanSmall"":3,""CanBig"":0,""Seaweed"":1}","{""FishSmall"":3,""FishBig"":0,""CanSmall"":1,""CanBig"":0,""Seaweed"":2}",50.0,100.0,-1.6666666666666667,3.3333333333333335,8.975274678557506,7.453559924999298,1.0,2.0,5.0,-1.521714753558208,1.0,50.0,"{""FishSmall"":2,""FishBig"":0,""CanSmall"":1,""CanBig"":0,""Seaweed"":0}","{""FishSmall"":1,""FishBig"":0,""CanSmall"":1,""CanBig"":1,""Seaweed"":0}",0.9,8816.020000000299,0.9615384615384616,2.0,2.0,2.0,1.0,2.0,2.0,2.0,2.0,2.0,2.0,2.0,2.0,2.0,100.0,1,0.9047619047619048
6729125.0,43,Female,2.0,Adults,4.0,0.0,trial_2,,0.0,,,31427.30000000447,2291.6999999955297,,"{""FishSmall"":1,""FishBig"":1,""CanSmall"":1,""CanBig"":0,""Seaweed"":3}","{""FishSmall"":0,""FishBig"":0,""CanSmall"":2,""CanBig"":2,""Seaweed"":2}",50.0,0.0,3.3333333333333335,-10.0,9.428090415820634,8.16496580927726,3.0,2.0,-13.333333333333334,-1.2631246065433732,-1.0,-50.0,"{""FishSmall"":1,""FishBig"":1,""CanSmall"":0,""CanBig"":1,""Seaweed"":0}","{""FishSmall"":0,""FishBig"":0,""CanSmall"":2,""CanBig"":1,""Seaweed"":0}",0.9,8816.020000000299,0.9615384615384616,2.0,2.0,2.0,1.0,2.0,2.0,2.0,2.0,2.0,2.0,2.0,2.0,2.0,100.0,2,0.9047619047619048
6729125.0,43,Female,2.0,Adults,4.0,0.0,trial_3,,,1.0,,17271.89999999851,,4991.0,"{""FishSmall"":2,""FishBig"":2,""CanSmall"":0,""CanBig"":0,""Seaweed"":2}","{""FishSmall"":0,""FishBig"":0,""CanSmall"":2,""CanBig"":2,""Seaweed"":2}",0.0,100.0,10.0,-10.0,8.16496580927726,8.16496580927726,2.0,2.0,-20.0,0.0,0.0,100.0,"{""FishSmall"":1,""FishBig"":2,""CanSmall"":0,""CanBig"":0,""Seaweed"":0}","{""FishSmall"":0,""FishBig"":0,""CanSmall"":1,""CanBig"":2,""Seaweed"":0}",0.9,8816.020000000299,0.9615384615384616,2.0,2.0,2.0,1.0,2.0,2.0,2.0,2.0,2.0,2.0,2.0,2.0,2.0,100.0,3,0.9047619047619048
6729125.0,43,Female,2.0,Adults,4.0,0.0,trial_4,,1.0,1.0,,8013.39999999851,8266.39999999851,10572.5,"{""FishSmall"":1,""FishBig"":0,""CanSmall"":3,""CanBig"":1,""Seaweed"":1}","{""FishSmall"":1,""FishBig"":2,""CanSmall"":0,""CanBig"":0,""Seaweed"":3}",50.0,100.0,-6.666666666666667,8.333333333333334,9.428090415820632,8.975274678557506,1.0,3.0,15.0,-0.4528157372631263,2.0,50.0,"{""FishSmall"":0,""FishBig"":1,""CanSmall"":2,""CanBig"":0,""Seaweed"":0}","{""FishSmall"":0,""FishBig"":1,""CanSmall"":0,""CanBig"":2,""Seaweed"":0}",0.9,8816.020000000299,0.9615384615384616,2.0,2.0,2.0,1.0,2.0,2.0,2.0,2.0,2.0,2.0,2.0,2.0,2.0,100.0,4,0.9047619047619048
6729125.0,43,Female,2.0,Adults,4.0,0.0,trial_5,,1.0,,,2649.1999999955297,16897.59999999404,,"{""FishSmall"":0,""FishBig"":0,""CanSmall"":3,""CanBig"":1,""Seaweed"":2}","{""FishSmall"":2,""FishBig"":3,""CanSmall"":0,""CanBig"":0,""Seaweed"":1}",100.0,50.0,-8.333333333333334,13.333333333333334,6.871842709362768,7.453559924999299,2.0,1.0,21.666666666666668,0.5817172156365311,-1.0,-50.0,"{""FishSmall"":1,""FishBig"":0,""CanSmall"":1,""CanBig"":1,""Seaweed"":0}","{""FishSmall"":1,""FishBig"":1,""CanSmall"":1,""CanBig"":0,""Seaweed"":0}",0.9,8816.020000000299,0.9615384615384616,2.0,2.0,2.0,1.0,2.0,2.0,2.0,2.0,2.0,2.0,2.0,2.0,2.0,100.0,5,0.9047619047619048
6729125.0,43,Female,2.0,Adults,4.0,1.0,trial_6,,1.0,1.0,,5020.79999999702,6068.0,2545.39999999851,"{""FishSmall"":0,""FishBig"":0,""CanSmall"":2,""CanBig"":2,""Seaweed"":2}","{""FishSmall"":1,""FishBig"":0,""CanSmall"":2,""CanBig"":0,""Seaweed"":3}",100.0,50.0,-10.0,-1.6666666666666667,8.16496580927726,6.871842709362768,2.0,3.0,8.333333333333334,-1.2931230999144931,1.0,-50.0,"{""FishSmall"":1,""FishBig"":0,""CanSmall"":1,""CanBig"":1,""Seaweed"":0}","{""FishSmall"":1,""FishBig"":0,""CanSmall"":2,""CanBig"":0,""Seaweed"":0}",0.9,8816.020000000299,0.9615384615384616,2.0,2.0,2.0,1.0,2.0,2.0,2.0,2.0,2.0,2.0,2.0,2.0,2.0,100.0,6,0.9047619047619048
6729125.0,43,Female,2.0,Adults,4.0,1.0,trial_7,,,,,3820.0,,,"{""FishSmall"":4,""FishBig"":0,""CanSmall"":1,""CanBig"":0,""Seaweed"":1}","{""FishSmall"":0,""FishBig"":0,""CanSmall"":2,""CanBig"":3,""Seaweed"":1}",0.0,0.0,5.0,-13.333333333333334,7.637626158259733,7.453559924999299,1.0,1.0,-18.333333333333336,-0.1840662332604346,0.0,0.0,"{""FishSmall"":1,""FishBig"":0,""CanSmall"":2,""CanBig"":0,""Seaweed"":0}","{""FishSmall"":0,""FishBig"":0,""CanSmall"":1,""CanBig"":2,""Seaweed"":0}",0.9,8816.020000000299,0.9615384615384616,2.0,2.0,2.0,1.0,2.0,2.0,2.0,2.0,2.0,2.0,2.0,2.0,2.0,100.0,7,0.9047619047619048
6729125.0,43,Female,2.0,Adults,4.0,0.0,trial_8,,,,,1712.89999999851,,,"{""FishSmall"":2,""FishBig"":1,""CanSmall"":0,""CanBig"":0,""Seaweed"":3}","{""FishSmall"":2,""FishBig"":1,""CanSmall"":1,""CanBig"":0,""Seaweed"":2}",0.0,0.0,6.666666666666667,5.0,7.453559924999299,9.574271077563381,3.0,2.0,-1.666666666666667,2.1207111525640823,-1.0,0.0,"{""FishSmall"":2,""FishBig"":0,""CanSmall"":1,""CanBig"":0,""Seaweed"":0}","{""FishSmall"":2,""FishBig"":1,""CanSmall"":0,""CanBig"":0,""Seaweed"":0}",0.9,8816.020000000299,0.9615384615384616,2.0,2.0,2.0,1.0,2.0,2.0,2.0,2.0,2.0,2.0,2.0,2.0,2.0,100.0,8,0.9047619047619048
6729125.0,43,Female,2.0,Adults,4.0,1.0,trial_9,,0.0,1.0,,2625.60000000149,1654.5,1657.0,"{""FishSmall"":2,""FishBig"":4,""CanSmall"":0,""CanBig"":0,""Seaweed"":0}","{""FishSmall"":2,""FishBig"":0,""CanSmall"":2,""CanBig"":0,""Seaweed"":2}",100.0,100.0,16.666666666666668,0.0,4.714045207910316,8.16496580927726,0.0,2.0,-16.666666666666668,3.4509206013669447,2.0,0.0,"{""FishSmall"":1,""FishBig"":2,""CanSmall"":0,""CanBig"":0,""Seaweed"":0}","{""FishSmall"":1,""FishBig"":0,""CanSmall"":1,""CanBig"":1,""Seaweed"":0}",0.9,8816.020000000299,0.9615384615384616,2.0,2.0,2.0,1.0,2.0,2.0,2.0,2.0,2.0,2.0,2.0,2.0,2.0,100.0,9,0.9047619047619048
6729125.0,43,Female,2.0,Adults,4.0,0.0,trial_10,,1.0,,,2096.1999999955297,1210.1999999955297,,"{""FishSmall"":1,""FishBig"":0,""CanSmall"":4,""CanBig"":0,""Seaweed"":1}","{""FishSmall"":1,""FishBig"":0,""CanSmall"":1,""CanBig"":1,""Seaweed"":3}",50.0,0.0,-5.0,-3.3333333333333335,7.637626158259733,9.428090415820634,1.0,3.0,1.6666666666666665,1.7904642575609007,2.0,-50.0,"{""FishSmall"":0,""FishBig"":0,""CanSmall"":3,""CanBig"":0,""Seaweed"":0}","{""FishSmall"":1,""FishBig"":0,""CanSmall"":1,""CanBig"":1,""Seaweed"":0}",0.9,8816.020000000299,0.9615384615384616,2.0,2.0,2.0,1.0,2.0,2.0,2.0,2.0,2.0,2.0,2.0,2.0,2.0,100.0,10,0.9047619047619048
6729125.0,43,Female,2.0,Adults,4.0,,catch_1,0.0,,,15037.60000000149,,,,"{""FishSmall"":4,""FishBig"":2,""CanSmall"":0,""CanBig"":0,""Seaweed"":0}","{""FishSmall"":4,""FishBig"":2,""CanSmall"":0,""CanBig"":0,""Seaweed"":0}",0.0,0.0,,,,,,,,,,,"{""FishSmall"":2,""FishBig"":1,""CanSmall"":0,""CanBig"":0,""Seaweed"":0}","{""FishSmall"":2,""FishBig"":1,""CanSmall"":0,""CanBig"":0,""Seaweed"":0}",0.9,8816.020000000299,0.9615384615384616,2.0,2.0,2.0,1.0,2.0,2.0,2.0,2.0,2.0,2.0,2.0,2.0,2.0,100.0,,0.9047619047619048
6729125.0,43,Female,2.0,Adults,4.0,0.0,trial_11,,,0.0,,3026.29999999702,,2848.0,"{""FishSmall"":0,""FishBig"":0,""CanSmall"":2,""CanBig"":2,""Seaweed"":2}","{""FishSmall"":1,""FishBig"":5,""CanSmall"":0,""CanBig"":0,""Seaweed"":0}",0.0,50.0,-10.0,18.333333333333332,8.16496580927726,3.72677996249965,2.0,0.0,28.333333333333332,-4.4381858467776105,-2.0,50.0,"{""FishSmall"":1,""FishBig"":0,""CanSmall"":0,""CanBig"":2,""Seaweed"":0}","{""FishSmall"":1,""FishBig"":2,""CanSmall"":0,""CanBig"":0,""Seaweed"":0}",0.9,8816.020000000299,0.9615384615384616,2.0,2.0,2.0,1.0,2.0,2.0,2.0,2.0,2.0,2.0,2.0,2.0,2.0,100.0,11,0.9047619047619048
6729125.0,43,Female,2.0,Adults,4.0,0.0,trial_12,,,0.0,,3686.89999999851,,2054.70000000298,"{""FishSmall"":2,""FishBig"":0,""CanSmall"":3,""CanBig"":0,""Seaweed"":1}","{""FishSmall"":2,""FishBig"":1,""CanSmall"":1,""CanBig"":0,""Seaweed"":2}",0.0,0.0,-1.6666666666666667,5.0,8.975274678557506,9.574271077563381,1.0,2.0,6.666666666666667,0.5989963990058751,1.0,0.0,"{""FishSmall"":1,""FishBig"":0,""CanSmall"":2,""CanBig"":0,""Seaweed"":0}","{""FishSmall"":2,""FishBig"":0,""CanSmall"":1,""CanBig"":0,""Seaweed"":0}",0.9,8816.020000000299,0.9615384615384616,2.0,2.0,2.0,1.0,2.0,2.0,2.0,2.0,2.0,2.0,2.0,2.0,2.0,100.0,12,0.9047619047619048
6729125.0,43,Female,2.0,Adults,4.0,1.0,trial_13,,0.0,,,4622.89999999851,6270.39999999851,,"{""FishSmall"":1,""FishBig"":3,""CanSmall"":0,""CanBig"":0,""Seaweed"":2}","{""FishSmall"":2,""FishBig"":0,""CanSmall"":2,""CanBig"":0,""Seaweed"":2}",50.0,0.0,11.666666666666666,0.0,8.975274678557506,8.16496580927726,2.0,2.0,-11.666666666666666,-0.8103088692802451,0.0,-50.0,"{""FishSmall"":1,""FishBig"":2,""CanSmall"":0,""CanBig"":0,""Seaweed"":0}","{""FishSmall"":1,""FishBig"":1,""CanSmall"":0,""CanBig"":1,""Seaweed"":0}",0.9,8816.020000000299,0.9615384615384616,2.0,2.0,2.0,1.0,2.0,2.0,2.0,2.0,2.0,2.0,2.0,2.0,2.0,100.0,13,0.9047619047619048
6729125.0,43,Female,2.0,Adults,4.0,0.0,trial_14,,1.0,0.0,,18978.69999999553,7394.80000000447,1770.0999999940395,"{""FishSmall"":0,""FishBig"":0,""CanSmall"":2,""CanBig"":3,""Seaweed"":1}","{""FishSmall"":2,""FishBig"":0,""CanSmall"":1,""CanBig"":0,""Seaweed"":3}",100.0,0.0,-13.333333333333334,1.6666666666666667,7.453559924999299,6.871842709362768,1.0,3.0,15.0,-0.5817172156365311,2.0,-100.0,"{""FishSmall"":0,""FishBig"":1,""CanSmall"":0,""CanBig"":2,""Seaweed"":0}","{""FishSmall"":1,""FishBig"":1,""CanSmall"":1,""CanBig"":0,""Seaweed"":0}",0.9,8816.020000000299,0.9615384615384616,2.0,2.0,2.0,1.0,2.0,2.0,2.0,2.0,2.0,2.0,2.0,2.0,2.0,100.0,14,0.9047619047619048
6729125.0,43,Female,2.0,Adults,4.0,1.0,trial_15,,1.0,0.0,,14513.39999999851,1630.2000000029802,1246.39999999851,"{""FishSmall"":1,""FishBig"":0,""CanSmall"":2,""CanBig"":1,""Seaweed"":2}","{""FishSmall"":0,""FishBig"":0,""CanSmall"":2,""CanBig"":1,""Seaweed"":3}",0.0,100.0,-5.0,-6.666666666666667,9.574271077563381,7.453559924999299,2.0,3.0,-1.666666666666667,-2.1207111525640823,1.0,100.0,"{""FishSmall"":0,""FishBig"":1,""CanSmall"":1,""CanBig"":1,""Seaweed"":0}","{""FishSmall"":2,""FishBig"":0,""CanSmall"":0,""CanBig"":1,""Seaweed"":0}",0.9,8816.020000000299,0.9615384615384616,2.0,2.0,2.0,1.0,2.0,2.0,2.0,2.0,2.0,2.0,2.0,2.0,2.0,100.0,15,0.9047619047619048
6729125.0,43,Female,2.0,Adults,4.0,1.0,trial_16,,1.0,1.0,,1442.0,4739.39999999851,1584.7000000029802,"{""FishSmall"":1,""FishBig"":0,""CanSmall"":2,""CanBig"":1,""Seaweed"":2}","{""FishSmall"":0,""FishBig"":0,""CanSmall"":1,""CanBig"":3,""Seaweed"":2}",100.0,0.0,-5.0,-11.666666666666666,9.574271077563381,8.975274678557506,2.0,2.0,-6.666666666666666,-0.5989963990058751,0.0,-100.0,"{""FishSmall"":1,""FishBig"":0,""CanSmall"":1,""CanBig"":1,""Seaweed"":0}","{""FishSmall"":0,""FishBig"":0,""CanSmall"":2,""CanBig"":1,""Seaweed"":0}",0.9,8816.020000000299,0.9615384615384616,2.0,2.0,2.0,1.0,2.0,2.0,2.0,2.0,2.0,2.0,2.0,2.0,2.0,100.0,16,0.9047619047619048
6729125.0,43,Female,2.0,Adults,4.0,1.0,trial_17,,0.0,,,22502.10000000149,26869.29999999702,,"{""FishSmall"":1,""FishBig"":2,""CanSmall"":0,""CanBig"":0,""Seaweed"":3}","{""FishSmall"":1,""FishBig"":1,""CanSmall"":1,""CanBig"":0,""Seaweed"":3}",50.0,50.0,8.333333333333334,3.3333333333333335,8.975274678557506,9.428090415820634,3.0,3.0,-5.0,0.45281573726312807,0.0,0.0,"{""FishSmall"":1,""FishBig"":1,""CanSmall"":0,""CanBig"":1,""Seaweed"":0}","{""FishSmall"":1,""FishBig"":1,""CanSmall"":1,""CanBig"":0,""Seaweed"":0}",0.9,8816.020000000299,0.9615384615384616,2.0,2.0,2.0,1.0,2.0,2.0,2.0,2.0,2.0,2.0,2.0,2.0,2.0,100.0,17,0.9047619047619048
6729125.0,43,Female,2.0,Adults,4.0,1.0,trial_18,,1.0,1.0,,14468.29999999702,1880.8999999985097,1375.2000000029802,"{""FishSmall"":1,""FishBig"":0,""CanSmall"":1,""CanBig"":1,""Seaweed"":3}","{""FishSmall"":0,""FishBig"":0,""CanSmall"":2,""CanBig"":3,""Seaweed"":1}",100.0,50.0,-3.3333333333333335,-13.333333333333334,9.428090415820634,7.453559924999299,3.0,1.0,-10.0,-1.9745304908213352,-2.0,-50.0,"{""FishSmall"":0,""FishBig"":0,""CanSmall"":2,""CanBig"":1,""Seaweed"":0}","{""FishSmall"":0,""FishBig"":0,""CanSmall"":2,""CanBig"":1,""Seaweed"":0}",0.9,8816.020000000299,0.9615384615384616,2.0,2.0,2.0,1.0,2.0,2.0,2.0,2.0,2.0,2.0,2.0,2.0,2.0,100.0,18,0.9047619047619048
6729125.0,43,Female,2.0,Adults,4.0,0.0,trial_19,,,0.0,,1432.39999999851,,20710.89999999851,"{""FishSmall"":1,""FishBig"":0,""CanSmall"":3,""CanBig"":1,""Seaweed"":1}","{""FishSmall"":3,""FishBig"":1,""CanSmall"":1,""CanBig"":0,""Seaweed"":1}",0.0,50.0,-6.666666666666667,6.666666666666667,9.428090415820632,9.428090415820634,1.0,1.0,13.333333333333334,1.7763568394002505e-15,0.0,50.0,"{""FishSmall"":2,""FishBig"":0,""CanSmall"":1,""CanBig"":0,""Seaweed"":0}","{""FishSmall"":2,""FishBig"":0,""CanSmall"":1,""CanBig"":0,""Seaweed"":0}",0.9,8816.020000000299,0.9615384615384616,2.0,2.0,2.0,1.0,2.0,2.0,2.0,2.0,2.0,2.0,2.0,2.0,2.0,100.0,19,0.9047619047619048
6729125.0,43,Female,2.0,Adults,4.0,0.0,trial_20,,0.0,,,16863.5,1361.3000000044703,,"{""FishSmall"":3,""FishBig"":0,""CanSmall"":1,""CanBig"":0,""Seaweed"":2}","{""FishSmall"":1,""FishBig"":1,""CanSmall"":1,""CanBig"":0,""Seaweed"":3}",0.0,50.0,3.3333333333333335,3.3333333333333335,7.453559924999298,9.428090415820634,2.0,3.0,0.0,1.9745304908213361,1.0,50.0,"{""FishSmall"":3,""FishBig"":0,""CanSmall"":0,""CanBig"":0,""Seaweed"":0}","{""FishSmall"":1,""FishBig"":0,""CanSmall"":2,""CanBig"":0,""Seaweed"":0}",0.9,8816.020000000299,0.9615384615384616,2.0,2.0,2.0,1.0,2.0,2.0,2.0,2.0,2.0,2.0,2.0,2.0,2.0,100.0,20,0.9047619047619048
6729125.0,43,Female,2.0,Adults,4.0,,catch_2,1.0,,,5349.69999999553,,,,"{""FishSmall"":0,""FishBig"":0,""CanSmall"":3,""CanBig"":3,""Seaweed"":0}","{""FishSmall"":0,""FishBig"":0,""CanSmall"":3,""CanBig"":3,""Seaweed"":0}",0.0,0.0,,,,,,,,,,,"{""FishSmall"":0,""FishBig"":0,""CanSmall"":2,""CanBig"":1,""Seaweed"":0}","{""FishSmall"":0,""FishBig"":0,""CanSmall"":2,""CanBig"":1,""Seaweed"":0}",0.9,8816.020000000299,0.9615384615384616,2.0,2.0,2.0,1.0,2.0,2.0,2.0,2.0,2.0,2.0,2.0,2.0,2.0,100.0,,0.9047619047619048
6729125.0,43,Female,2.0,Adults,4.0,1.0,trial_21,,1.0,,,1801.8000000044703,8459.0,,"{""FishSmall"":0,""FishBig"":0,""CanSmall"":2,""CanBig"":1,""Seaweed"":3}","{""FishSmall"":4,""FishBig"":0,""CanSmall"":1,""CanBig"":0,""Seaweed"":1}",100.0,50.0,-6.666666666666667,5.0,7.453559924999299,7.637626158259733,3.0,1.0,11.666666666666668,0.1840662332604346,-2.0,-50.0,"{""FishSmall"":0,""FishBig"":1,""CanSmall"":1,""CanBig"":1,""Seaweed"":0}","{""FishSmall"":2,""FishBig"":0,""CanSmall"":0,""CanBig"":1,""Seaweed"":0}",0.9,8816.020000000299,0.9615384615384616,2.0,2.0,2.0,1.0,2.0,2.0,2.0,2.0,2.0,2.0,2.0,2.0,2.0,100.0,21,0.9047619047619048
6729125.0,43,Female,2.0,Adults,4.0,0.0,trial_22,,1.0,,,4411.10000000149,24393.59999999404,,"{""FishSmall"":0,""FishBig"":0,""CanSmall"":2,""CanBig"":1,""Seaweed"":3}","{""FishSmall"":0,""FishBig"":1,""CanSmall"":0,""CanBig"":1,""Seaweed"":4}",100.0,50.0,-6.666666666666667,0.0,7.453559924999299,11.547005383792516,3.0,4.0,6.666666666666667,4.093445458793218,1.0,-50.0,"{""FishSmall"":0,""FishBig"":1,""CanSmall"":2,""CanBig"":0,""Seaweed"":0}","{""FishSmall"":1,""FishBig"":1,""CanSmall"":0,""CanBig"":1,""Seaweed"":0}",0.9,8816.020000000299,0.9615384615384616,2.0,2.0,2.0,1.0,2.0,2.0,2.0,2.0,2.0,2.0,2.0,2.0,2.0,100.0,22,0.9047619047619048
6729125.0,43,Female,2.0,Adults,4.0,1.0,trial_23,,,1.0,,3595.39999999851,,2018.6999999955297,"{""FishSmall"":0,""FishBig"":0,""CanSmall"":3,""CanBig"":0,""Seaweed"":3}","{""FishSmall"":0,""FishBig"":0,""CanSmall"":2,""CanBig"":2,""Seaweed"":2}",0.0,0.0,-5.0,-10.0,5.0,8.16496580927726,3.0,2.0,-5.0,3.164965809277261,-1.0,0.0,"{""FishSmall"":0,""FishBig"":0,""CanSmall"":3,""CanBig"":0,""Seaweed"":0}","{""FishSmall"":0,""FishBig"":0,""CanSmall"":1,""CanBig"":2,""Seaweed"":0}",0.9,8816.020000000299,0.9615384615384616,2.0,2.0,2.0,1.0,2.0,2.0,2.0,2.0,2.0,2.0,2.0,2.0,2.0,100.0,23,0.9047619047619048
6729125.0,43,Female,2.0,Adults,4.0,1.0,trial_24,,,1.0,,10978.5,,17777.19999999553,"{""FishSmall"":3,""FishBig"":1,""CanSmall"":1,""CanBig"":0,""Seaweed"":1}","{""FishSmall"":0,""FishBig"":0,""CanSmall"":2,""CanBig"":3,""Seaweed"":1}",50.0,100.0,6.666666666666667,-13.333333333333334,9.428090415820634,7.453559924999299,1.0,1.0,-20.0,-1.9745304908213352,0.0,50.0,"{""FishSmall"":1,""FishBig"":0,""CanSmall"":1,""CanBig"":1,""Seaweed"":0}","{""FishSmall"":0,""FishBig"":1,""CanSmall"":1,""CanBig"":1,""Seaweed"":0}",0.9,8816.020000000299,0.9615384615384616,2.0,2.0,2.0,1.0,2.0,2.0,2.0,2.0,2.0,2.0,2.0,2.0,2.0,100.0,24,0.9047619047619048
6729125.0,43,Female,2.0,Adults,4.0,0.0,trial_25,,0.0,0.0,,1593.0,31831.0,2163.60000000149,"{""FishSmall"":1,""FishBig"":0,""CanSmall"":2,""CanBig"":1,""Seaweed"":2}","{""FishSmall"":3,""FishBig"":3,""CanSmall"":0,""CanBig"":0,""Seaweed"":0}",100.0,0.0,-5.0,15.0,9.574271077563381,5.0,2.0,0.0,20.0,-4.574271077563381,-2.0,-100.0,"{""FishSmall"":1,""FishBig"":1,""CanSmall"":1,""CanBig"":0,""Seaweed"":0}","{""FishSmall"":1,""FishBig"":2,""CanSmall"":0,""CanBig"":0,""Seaweed"":0}",0.9,8816.020000000299,0.9615384615384616,2.0,2.0,2.0,1.0,2.0,2.0,2.0,2.0,2.0,2.0,2.0,2.0,2.0,100.0,25,0.9047619047619048
6729125.0,43,Female,2.0,Adults,4.0,1.0,trial_26,,1.0,0.0,,1042.0,18476.5,2592.60000000149,"{""FishSmall"":2,""FishBig"":0,""CanSmall"":4,""CanBig"":0,""Seaweed"":0}","{""FishSmall"":0,""FishBig"":0,""CanSmall"":1,""CanBig"":2,""Seaweed"":3}",100.0,0.0,-3.3333333333333335,-8.333333333333334,9.428090415820634,8.975274678557506,0.0,3.0,-5.0,-0.45281573726312807,3.0,-100.0,"{""FishSmall"":0,""FishBig"":0,""CanSmall"":3,""CanBig"":0,""Seaweed"":0}","{""FishSmall"":0,""FishBig"":1,""CanSmall"":1,""CanBig"":1,""Seaweed"":0}",0.9,8816.020000000299,0.9615384615384616,2.0,2.0,2.0,1.0,2.0,2.0,2.0,2.0,2.0,2.0,2.0,2.0,2.0,100.0,26,0.9047619047619048
6729125.0,43,Female,2.0,Adults,4.0,1.0,trial_27,,0.0,0.0,,21193.29999999702,2278.79999999702,2980.10000000149,"{""FishSmall"":1,""FishBig"":0,""CanSmall"":1,""CanBig"":1,""Seaweed"":3}","{""FishSmall"":3,""FishBig"":1,""CanSmall"":1,""CanBig"":0,""Seaweed"":1}",50.0,50.0,-3.3333333333333335,6.666666666666667,9.428090415820634,9.428090415820634,3.0,1.0,10.0,0.0,-2.0,0.0,"{""FishSmall"":0,""FishBig"":0,""CanSmall"":1,""CanBig"":2,""Seaweed"":0}","{""FishSmall"":1,""FishBig"":1,""CanSmall"":1,""CanBig"":0,""Seaweed"":0}",0.9,8816.020000000299,0.9615384615384616,2.0,2.0,2.0,1.0,2.0,2.0,2.0,2.0,2.0,2.0,2.0,2.0,2.0,100.0,27,0.9047619047619048
6729125.0,43,Female,2.0,Adults,4.0,0.0,trial_28,,1.0,1.0,,1046.2999999970198,34935.60000000149,2198.60000000149,"{""FishSmall"":1,""FishBig"":0,""CanSmall"":2,""CanBig"":0,""Seaweed"":3}","{""FishSmall"":1,""FishBig"":0,""CanSmall"":2,""CanBig"":1,""Seaweed"":2}",100.0,0.0,-1.6666666666666667,-5.0,6.871842709362768,9.574271077563381,3.0,2.0,-3.333333333333333,2.7024283682006134,-1.0,-100.0,"{""FishSmall"":1,""FishBig"":0,""CanSmall"":2,""CanBig"":0,""Seaweed"":0}","{""FishSmall"":0,""FishBig"":1,""CanSmall"":1,""CanBig"":1,""Seaweed"":0}",0.9,8816.020000000299,0.9615384615384616,2.0,2.0,2.0,1.0,2.0,2.0,2.0,2.0,2.0,2.0,2.0,2.0,2.0,100.0,28,0.9047619047619048
6729125.0,43,Female,2.0,Adults,4.0,0.0,trial_29,,1.0,1.0,,1906.0,2288.79999999702,22674.80000000447,"{""FishSmall"":0,""FishBig"":0,""CanSmall"":2,""CanBig"":3,""Seaweed"":1}","{""FishSmall"":0,""FishBig"":0,""CanSmall"":0,""CanBig"":5,""Seaweed"":1}",50.0,50.0,-13.333333333333334,-16.666666666666668,7.453559924999299,7.4535599249993,1.0,1.0,-3.333333333333334,8.881784197001252e-16,0.0,0.0,"{""FishSmall"":0,""FishBig"":0,""CanSmall"":2,""CanBig"":1,""Seaweed"":0}","{""FishSmall"":0,""FishBig"":0,""CanSmall"":0,""CanBig"":3,""Seaweed"":0}",0.9,8816.020000000299,0.9615384615384616,2.0,2.0,2.0,1.0,2.0,2.0,2.0,2.0,2.0,2.0,2.0,2.0,2.0,100.0,29,0.9047619047619048
6729125.0,43,Female,2.0,Adults,4.0,0.0,trial_30,,1.0,0.0,,1390.2999999970198,1849.6999999955297,21530.5,"{""FishSmall"":2,""FishBig"":0,""CanSmall"":2,""CanBig"":0,""Seaweed"":2}","{""FishSmall"":5,""FishBig"":0,""CanSmall"":1,""CanBig"":0,""Seaweed"":0}",0.0,100.0,0.0,6.666666666666667,8.16496580927726,7.4535599249993,2.0,0.0,6.666666666666667,-0.7114058842779611,-2.0,100.0,"{""FishSmall"":1,""FishBig"":1,""CanSmall"":0,""CanBig"":1,""Seaweed"":0}","{""FishSmall"":2,""FishBig"":0,""CanSmall"":1,""CanBig"":0,""Seaweed"":0}",0.9,8816.020000000299,0.9615384615384616,2.0,2.0,2.0,1.0,2.0,2.0,2.0,2.0,2.0,2.0,2.0,2.0,2.0,100.0,30,0.9047619047619048
6729126.0,22,Female,2.0,Adults,4.0,0.0,trial_1,,0.0,,,1847.2999999998135,2031.2999999998135,,"{""FishSmall"":0,""FishBig"":0,""CanSmall"":2,""CanBig"":1,""Seaweed"":3}","{""FishSmall"":2,""FishBig"":0,""CanSmall"":3,""CanBig"":0,""Seaweed"":1}",100.0,50.0,-6.666666666666667,-1.6666666666666667,7.453559924999299,8.975274678557506,3.0,1.0,5.0,1.5217147535582072,-2.0,-50.0,"{""FishSmall"":1,""FishBig"":1,""CanSmall"":0,""CanBig"":1,""Seaweed"":0}","{""FishSmall"":1,""FishBig"":1,""CanSmall"":1,""CanBig"":0,""Seaweed"":0}",1.0,661.2799999999813,1.0,2.0,2.0,2.0,2.0,2.0,2.0,2.0,2.0,2.0,2.0,2.0,2.0,2.0,100.0,1,1.0
6729126.0,22,Female,2.0,Adults,4.0,0.0,trial_2,,0.0,0.0,,2545.0,3450.199999999255,2985.2000000001863,"{""FishSmall"":2,""FishBig"":1,""CanSmall"":1,""CanBig"":0,""Seaweed"":2}","{""FishSmall"":3,""FishBig"":1,""CanSmall"":1,""CanBig"":0,""Seaweed"":1}",100.0,50.0,5.0,6.666666666666667,9.574271077563381,9.428090415820634,2.0,1.0,1.666666666666667,-0.14618066174274702,-1.0,-50.0,"{""FishSmall"":2,""FishBig"":0,""CanSmall"":1,""CanBig"":0,""Seaweed"":0}","{""FishSmall"":2,""FishBig"":0,""CanSmall"":1,""CanBig"":0,""Seaweed"":0}",1.0,661.2799999999813,1.0,2.0,2.0,2.0,2.0,2.0,2.0,2.0,2.0,2.0,2.0,2.0,2.0,2.0,100.0,2,1.0
6729126.0,22,Female,2.0,Adults,4.0,1.0,trial_3,,,,,4078.399999999441,,,"{""FishSmall"":0,""FishBig"":0,""CanSmall"":2,""CanBig"":1,""Seaweed"":3}","{""FishSmall"":2,""FishBig"":1,""CanSmall"":1,""CanBig"":0,""Seaweed"":2}",50.0,0.0,-6.666666666666667,5.0,7.453559924999299,9.574271077563381,3.0,2.0,11.666666666666668,2.1207111525640823,-1.0,-50.0,"{""FishSmall"":0,""FishBig"":0,""CanSmall"":3,""CanBig"":0,""Seaweed"":0}","{""FishSmall"":0,""FishBig"":1,""CanSmall"":1,""CanBig"":1,""Seaweed"":0}",1.0,661.2799999999813,1.0,2.0,2.0,2.0,2.0,2.0,2.0,2.0,2.0,2.0,2.0,2.0,2.0,2.0,100.0,3,1.0
6729126.0,22,Female,2.0,Adults,4.0,1.0,trial_4,,0.0,0.0,,1248.0999999996277,2582.0999999996275,3066.0999999996275,"{""FishSmall"":4,""FishBig"":2,""CanSmall"":0,""CanBig"":0,""Seaweed"":0}","{""FishSmall"":1,""FishBig"":2,""CanSmall"":0,""CanBig"":0,""Seaweed"":3}",50.0,100.0,13.333333333333334,8.333333333333334,4.714045207910316,8.975274678557506,0.0,3.0,-5.0,4.26122947064719,3.0,50.0,"{""FishSmall"":1,""FishBig"":2,""CanSmall"":0,""CanBig"":0,""Seaweed"":0}","{""FishSmall"":0,""FishBig"":2,""CanSmall"":1,""CanBig"":0,""Seaweed"":0}",1.0,661.2799999999813,1.0,2.0,2.0,2.0,2.0,2.0,2.0,2.0,2.0,2.0,2.0,2.0,2.0,2.0,100.0,4,1.0
6729126.0,22,Female,2.0,Adults,4.0,0.0,trial_5,,,0.0,,1943.1000000005588,,3134.0,"{""FishSmall"":2,""FishBig"":3,""CanSmall"":0,""CanBig"":0,""Seaweed"":1}","{""FishSmall"":1,""FishBig"":4,""CanSmall"":0,""CanBig"":0,""Seaweed"":1}",50.0,50.0,13.333333333333334,15.0,7.453559924999299,7.637626158259733,1.0,1.0,1.666666666666666,0.1840662332604346,0.0,0.0,"{""FishSmall"":1,""FishBig"":1,""CanSmall"":1,""CanBig"":0,""Seaweed"":0}","{""FishSmall"":1,""FishBig"":2,""CanSmall"":0,""CanBig"":0,""Seaweed"":0}",1.0,661.2799999999813,1.0,2.0,2.0,2.0,2.0,2.0,2.0,2.0,2.0,2.0,2.0,2.0,2.0,2.0,100.0,5,1.0
6729126.0,22,Female,2.0,Adults,4.0,0.0,trial_6,,1.0,,,1267.6000000005588,1333.2999999998135,,"{""FishSmall"":1,""FishBig"":1,""CanSmall"":1,""CanBig"":0,""Seaweed"":3}","{""FishSmall"":3,""FishBig"":0,""CanSmall"":0,""CanBig"":0,""Seaweed"":3}",100.0,50.0,3.3333333333333335,5.0,9.428090415820634,5.0,3.0,3.0,1.6666666666666665,-4.428090415820634,0.0,-50.0,"{""FishSmall"":0,""FishBig"":1,""CanSmall"":2,""CanBig"":0,""Seaweed"":0}","{""FishSmall"":2,""FishBig"":1,""CanSmall"":0,""CanBig"":0,""Seaweed"":0}",1.0,661.2799999999813,1.0,2.0,2.0,2.0,2.0,2.0,2.0,2.0,2.0,2.0,2.0,2.0,2.0,2.0,100.0,6,1.0
6729126.0,22,Female,2.0,Adults,4.0,0.0,trial_7,,0.0,1.0,,782.0999999996275,893.2000000001863,2610.5,"{""FishSmall"":3,""FishBig"":0,""CanSmall"":1,""CanBig"":0,""Seaweed"":2}","{""FishSmall"":1,""FishBig"":0,""CanSmall"":3,""CanBig"":1,""Seaweed"":1}",100.0,100.0,3.3333333333333335,-6.666666666666667,7.453559924999298,9.428090415820632,2.0,1.0,-10.0,1.9745304908213344,-1.0,0.0,"{""FishSmall"":2,""FishBig"":0,""CanSmall"":1,""CanBig"":0,""Seaweed"":0}","{""FishSmall"":1,""FishBig"":0,""CanSmall"":1,""CanBig"":1,""Seaweed"":0}",1.0,661.2799999999813,1.0,2.0,2.0,2.0,2.0,2.0,2.0,2.0,2.0,2.0,2.0,2.0,2.0,2.0,100.0,7,1.0
6729126.0,22,Female,2.0,Adults,4.0,1.0,trial_8,,0.0,0.0,,2503.699999999255,2738.199999999255,1692.2000000001865,"{""FishSmall"":1,""FishBig"":4,""CanSmall"":0,""CanBig"":0,""Seaweed"":1}","{""FishSmall"":3,""FishBig"":1,""CanSmall"":1,""CanBig"":0,""Seaweed"":1}",100.0,100.0,15.0,6.666666666666667,7.637626158259733,9.428090415820634,1.0,1.0,-8.333333333333332,1.7904642575609007,0.0,0.0,"{""FishSmall"":1,""FishBig"":2,""CanSmall"":0,""CanBig"":0,""Seaweed"":0}","{""FishSmall"":2,""FishBig"":0,""CanSmall"":1,""CanBig"":0,""Seaweed"":0}",1.0,661.2799999999813,1.0,2.0,2.0,2.0,2.0,2.0,2.0,2.0,2.0,2.0,2.0,2.0,2.0,2.0,100.0,8,1.0
6729126.0,22,Female,2.0,Adults,4.0,0.0,trial_9,,,,,1257.5,,,"{""FishSmall"":1,""FishBig"":3,""CanSmall"":0,""CanBig"":0,""Seaweed"":2}","{""FishSmall"":1,""FishBig"":0,""CanSmall"":3,""CanBig"":0,""Seaweed"":2}",0.0,50.0,11.666666666666666,-3.3333333333333335,8.975274678557506,7.453559924999299,2.0,2.0,-15.0,-1.5217147535582072,0.0,50.0,"{""FishSmall"":0,""FishBig"":2,""CanSmall"":1,""CanBig"":0,""Seaweed"":0}","{""FishSmall"":0,""FishBig"":1,""CanSmall"":2,""CanBig"":0,""Seaweed"":0}",1.0,661.2799999999813,1.0,2.0,2.0,2.0,2.0,2.0,2.0,2.0,2.0,2.0,2.0,2.0,2.0,2.0,100.0,9,1.0
6729126.0,22,Female,2.0,Adults,4.0,1.0,trial_10,,1.0,,,582.8999999994412,3285.0,,"{""FishSmall"":1,""FishBig"":0,""CanSmall"":2,""CanBig"":1,""Seaweed"":2}","{""FishSmall"":4,""FishBig"":1,""CanSmall"":0,""CanBig"":0,""Seaweed"":1}",100.0,50.0,-5.0,10.0,9.574271077563381,5.773502691896258,2.0,1.0,15.0,-3.800768385667123,-1.0,-50.0,"{""FishSmall"":1,""FishBig"":0,""CanSmall"":1,""CanBig"":1,""Seaweed"":0}","{""FishSmall"":3,""FishBig"":0,""CanSmall"":0,""CanBig"":0,""Seaweed"":0}",1.0,661.2799999999813,1.0,2.0,2.0,2.0,2.0,2.0,2.0,2.0,2.0,2.0,2.0,2.0,2.0,2.0,100.0,10,1.0
6729126.0,22,Female,2.0,Adults,4.0,,catch_1,0.0,,,4816.399999999441,,,,"{""FishSmall"":4,""FishBig"":2,""CanSmall"":0,""CanBig"":0,""Seaweed"":0}","{""FishSmall"":4,""FishBig"":2,""CanSmall"":0,""CanBig"":0,""Seaweed"":0}",0.0,0.0,,,,,,,,,,,"{""FishSmall"":3,""FishBig"":0,""CanSmall"":0,""CanBig"":0,""Seaweed"":0}","{""FishSmall"":2,""FishBig"":1,""CanSmall"":0,""CanBig"":0,""Seaweed"":0}",1.0,661.2799999999813,1.0,2.0,2.0,2.0,2.0,2.0,2.0,2.0,2.0,2.0,2.0,2.0,2.0,2.0,100.0,,1.0
6729126.0,22,Female,2.0,Adults,4.0,0.0,trial_11,,,,,1765.6000000005588,,,"{""FishSmall"":1,""FishBig"":2,""CanSmall"":0,""CanBig"":0,""Seaweed"":3}","{""FishSmall"":1,""FishBig"":4,""CanSmall"":0,""CanBig"":0,""Seaweed"":1}",0.0,0.0,8.333333333333334,15.0,8.975274678557506,7.637626158259733,3.0,1.0,6.666666666666666,-1.3376485202977726,-2.0,0.0,"{""FishSmall"":0,""FishBig"":2,""CanSmall"":0,""CanBig"":1,""Seaweed"":0}","{""FishSmall"":0,""FishBig"":2,""CanSmall"":0,""CanBig"":1,""Seaweed"":0}",1.0,661.2799999999813,1.0,2.0,2.0,2.0,2.0,2.0,2.0,2.0,2.0,2.0,2.0,2.0,2.0,2.0,100.0,11,1.0
6729126.0,22,Female,2.0,Adults,4.0,1.0,trial_12,,,,,1196.7000000001865,,,"{""FishSmall"":0,""FishBig"":0,""CanSmall"":3,""CanBig"":2,""Seaweed"":1}","{""FishSmall"":2,""FishBig"":1,""CanSmall"":1,""CanBig"":0,""Seaweed"":2}",0.0,50.0,-11.666666666666666,5.0,6.871842709362768,9.574271077563381,1.0,2.0,16.666666666666664,2.7024283682006134,1.0,50.0,"{""FishSmall"":1,""FishBig"":0,""CanSmall"":1,""CanBig"":1,""Seaweed"":0}","{""FishSmall"":0,""FishBig"":0,""CanSmall"":3,""CanBig"":0,""Seaweed"":0}",1.0,661.2799999999813,1.0,2.0,2.0,2.0,2.0,2.0,2.0,2.0,2.0,2.0,2.0,2.0,2.0,2.0,100.0,12,1.0
6729126.0,22,Female,2.0,Adults,4.0,0.0,trial_13,,,1.0,,1170.699999999255,,2646.9000000003725,"{""FishSmall"":3,""FishBig"":1,""CanSmall"":1,""CanBig"":0,""Seaweed"":1}","{""FishSmall"":1,""FishBig"":0,""CanSmall"":4,""CanBig"":0,""Seaweed"":1}",50.0,50.0,6.666666666666667,-5.0,9.428090415820634,7.637626158259733,1.0,1.0,-11.666666666666668,-1.7904642575609007,0.0,0.0,"{""FishSmall"":1,""FishBig"":1,""CanSmall"":1,""CanBig"":0,""Seaweed"":0}","{""FishSmall"":0,""FishBig"":1,""CanSmall"":2,""CanBig"":0,""Seaweed"":0}",1.0,661.2799999999813,1.0,2.0,2.0,2.0,2.0,2.0,2.0,2.0,2.0,2.0,2.0,2.0,2.0,2.0,100.0,13,1.0
6729126.0,22,Female,2.0,Adults,4.0,0.0,trial_14,,1.0,0.0,,1388.4000000003723,1589.1000000005588,3658.700000000186,"{""FishSmall"":0,""FishBig"":0,""CanSmall"":1,""CanBig"":2,""Seaweed"":3}","{""FishSmall"":2,""FishBig"":2,""CanSmall"":0,""CanBig"":0,""Seaweed"":2}",100.0,100.0,-8.333333333333334,10.0,8.975274678557506,8.16496580927726,3.0,2.0,18.333333333333336,-0.8103088692802451,-1.0,0.0,"{""FishSmall"":0,""FishBig"":1,""CanSmall"":1,""CanBig"":1,""Seaweed"":0}","{""FishSmall"":1,""FishBig"":0,""CanSmall"":1,""CanBig"":1,""Seaweed"":0}",1.0,661.2799999999813,1.0,2.0,2.0,2.0,2.0,2.0,2.0,2.0,2.0,2.0,2.0,2.0,2.0,2.0,100.0,14,1.0
6729126.0,22,Female,2.0,Adults,4.0,0.0,trial_15,,,0.0,,1457.2999999998135,,3468.2000000001863,"{""FishSmall"":0,""FishBig"":0,""CanSmall"":3,""CanBig"":2,""Seaweed"":1}","{""FishSmall"":3,""FishBig"":1,""CanSmall"":1,""CanBig"":0,""Seaweed"":1}",0.0,50.0,-11.666666666666666,6.666666666666667,6.871842709362768,9.428090415820634,1.0,1.0,18.333333333333332,2.5562477064578664,0.0,50.0,"{""FishSmall"":0,""FishBig"":1,""CanSmall"":1,""CanBig"":1,""Seaweed"":0}","{""FishSmall"":3,""FishBig"":0,""CanSmall"":0,""CanBig"":0,""Seaweed"":0}",1.0,661.2799999999813,1.0,2.0,2.0,2.0,2.0,2.0,2.0,2.0,2.0,2.0,2.0,2.0,2.0,2.0,100.0,15,1.0
6729126.0,22,Female,2.0,Adults,4.0,1.0,trial_16,,1.0,,,1578.2999999998135,3381.7000000001863,,"{""FishSmall"":0,""FishBig"":0,""CanSmall"":2,""CanBig"":2,""Seaweed"":2}","{""FishSmall"":0,""FishBig"":0,""CanSmall"":1,""CanBig"":2,""Seaweed"":3}",50.0,50.0,-10.0,-8.333333333333334,8.16496580927726,8.975274678557506,2.0,3.0,1.666666666666666,0.8103088692802451,1.0,0.0,"{""FishSmall"":0,""FishBig"":1,""CanSmall"":0,""CanBig"":2,""Seaweed"":0}","{""FishSmall"":0,""FishBig"":0,""CanSmall"":1,""CanBig"":2,""Seaweed"":0}",1.0,661.2799999999813,1.0,2.0,2.0,2.0,2.0,2.0,2.0,2.0,2.0,2.0,2.0,2.0,2.0,2.0,100.0,16,1.0
6729126.0,22,Female,2.0,Adults,4.0,0.0,trial_17,,,1.0,,2625.7999999998137,,2591.399999999441,"{""FishSmall"":2,""FishBig"":1,""CanSmall"":1,""CanBig"":0,""Seaweed"":2}","{""FishSmall"":0,""FishBig"":0,""CanSmall"":2,""CanBig"":2,""Seaweed"":2}",0.0,100.0,5.0,-10.0,9.574271077563381,8.16496580927726,2.0,2.0,-15.0,-1.4093052682861202,0.0,100.0,"{""FishSmall"":2,""FishBig"":1,""CanSmall"":0,""CanBig"":0,""Seaweed"":0}","{""FishSmall"":0,""FishBig"":1,""CanSmall"":1,""CanBig"":1,""Seaweed"":0}",1.0,661.2799999999813,1.0,2.0,2.0,2.0,2.0,2.0,2.0,2.0,2.0,2.0,2.0,2.0,2.0,2.0,100.0,17,1.0
6729126.0,22,Female,2.0,Adults,4.0,1.0,trial_18,,0.0,0.0,,2570.699999999255,1828.5,980.0999999996276,"{""FishSmall"":3,""FishBig"":1,""CanSmall"":1,""CanBig"":0,""Seaweed"":1}","{""FishSmall"":1,""FishBig"":0,""CanSmall"":2,""CanBig"":1,""Seaweed"":2}",100.0,100.0,6.666666666666667,-5.0,9.428090415820634,9.574271077563381,1.0,2.0,-11.666666666666668,0.14618066174274702,1.0,0.0,"{""FishSmall"":2,""FishBig"":0,""CanSmall"":1,""CanBig"":0,""Seaweed"":0}","{""FishSmall"":1,""FishBig"":1,""CanSmall"":1,""CanBig"":0,""Seaweed"":0}",1.0,661.2799999999813,1.0,2.0,2.0,2.0,2.0,2.0,2.0,2.0,2.0,2.0,2.0,2.0,2.0,2.0,100.0,18,1.0
6729126.0,22,Female,2.0,Adults,4.0,0.0,trial_19,,,0.0,,2556.7000000001863,,2083.899999999441,"{""FishSmall"":2,""FishBig"":0,""CanSmall"":1,""CanBig"":0,""Seaweed"":3}","{""FishSmall"":3,""FishBig"":1,""CanSmall"":1,""CanBig"":0,""Seaweed"":1}",0.0,100.0,1.6666666666666667,6.666666666666667,6.871842709362768,9.428090415820634,3.0,1.0,5.0,2.5562477064578664,-2.0,100.0,"{""FishSmall"":0,""FishBig"":0,""CanSmall"":1,""CanBig"":2,""Seaweed"":0}","{""FishSmall"":2,""FishBig"":0,""CanSmall"":1,""CanBig"":0,""Seaweed"":0}",1.0,661.2799999999813,1.0,2.0,2.0,2.0,2.0,2.0,2.0,2.0,2.0,2.0,2.0,2.0,2.0,2.0,100.0,19,1.0
6729126.0,22,Female,2.0,Adults,4.0,1.0,trial_20,,0.0,1.0,,652.5,2770.5,856.7000000001863,"{""FishSmall"":5,""FishBig"":0,""CanSmall"":0,""CanBig"":0,""Seaweed"":1}","{""FishSmall"":1,""FishBig"":0,""CanSmall"":1,""CanBig"":1,""Seaweed"":3}",50.0,100.0,8.333333333333334,-3.3333333333333335,3.72677996249965,9.428090415820634,1.0,3.0,-11.666666666666668,5.701310453320984,2.0,50.0,"{""FishSmall"":3,""FishBig"":0,""CanSmall"":0,""CanBig"":0,""Seaweed"":0}","{""FishSmall"":1,""FishBig"":0,""CanSmall"":1,""CanBig"":1,""Seaweed"":0}",1.0,661.2799999999813,1.0,2.0,2.0,2.0,2.0,2.0,2.0,2.0,2.0,2.0,2.0,2.0,2.0,2.0,100.0,20,1.0
6729126.0,22,Female,2.0,Adults,4.0,,catch_2,1.0,,,940.8999999994412,,,,"{""FishSmall"":0,""FishBig"":0,""CanSmall"":3,""CanBig"":3,""Seaweed"":0}","{""FishSmall"":0,""FishBig"":0,""CanSmall"":3,""CanBig"":3,""Seaweed"":0}",0.0,0.0,,,,,,,,,,,"{""FishSmall"":0,""FishBig"":0,""CanSmall"":3,""CanBig"":0,""Seaweed"":0}","{""FishSmall"":0,""FishBig"":0,""CanSmall"":2,""CanBig"":1,""Seaweed"":0}",1.0,661.2799999999813,1.0,2.0,2.0,2.0,2.0,2.0,2.0,2.0,2.0,2.0,2.0,2.0,2.0,2.0,100.0,,1.0
6729126.0,22,Female,2.0,Adults,4.0,0.0,trial_21,,,1.0,,2293.2000000001863,,1452.7000000001865,"{""FishSmall"":5,""FishBig"":0,""CanSmall"":0,""CanBig"":0,""Seaweed"":1}","{""FishSmall"":0,""FishBig"":0,""CanSmall"":2,""CanBig"":3,""Seaweed"":1}",0.0,100.0,8.333333333333334,-13.333333333333334,3.72677996249965,7.453559924999299,1.0,1.0,-21.666666666666668,3.726779962499649,0.0,100.0,"{""FishSmall"":3,""FishBig"":0,""CanSmall"":0,""CanBig"":0,""Seaweed"":0}","{""FishSmall"":0,""FishBig"":0,""CanSmall"":1,""CanBig"":2,""Seaweed"":0}",1.0,661.2799999999813,1.0,2.0,2.0,2.0,2.0,2.0,2.0,2.0,2.0,2.0,2.0,2.0,2.0,2.0,100.0,21,1.0
6729126.0,22,Female,2.0,Adults,4.0,0.0,trial_22,,,1.0,,1452.9000000003723,,2990.7999999998137,"{""FishSmall"":2,""FishBig"":0,""CanSmall"":3,""CanBig"":0,""Seaweed"":1}","{""FishSmall"":0,""FishBig"":0,""CanSmall"":1,""CanBig"":2,""Seaweed"":3}",0.0,100.0,-1.6666666666666667,-8.333333333333334,8.975274678557506,8.975274678557506,1.0,3.0,-6.666666666666667,0.0,2.0,100.0,"{""FishSmall"":2,""FishBig"":0,""CanSmall"":1,""CanBig"":0,""Seaweed"":0}","{""FishSmall"":0,""FishBig"":1,""CanSmall"":1,""CanBig"":1,""Seaweed"":0}",1.0,661.2799999999813,1.0,2.0,2.0,2.0,2.0,2.0,2.0,2.0,2.0,2.0,2.0,2.0,2.0,2.0,100.0,22,1.0
6729126.0,22,Female,2.0,Adults,4.0,0.0,trial_23,,0.0,,,1033.6000000005588,2752.0999999996275,,"{""FishSmall"":2,""FishBig"":1,""CanSmall"":1,""CanBig"":0,""Seaweed"":2}","{""FishSmall"":1,""FishBig"":0,""CanSmall"":2,""CanBig"":1,""Seaweed"":2}",50.0,0.0,5.0,-5.0,9.574271077563381,9.574271077563381,2.0,2.0,-10.0,0.0,0.0,-50.0,"{""FishSmall"":2,""FishBig"":0,""CanSmall"":1,""CanBig"":0,""Seaweed"":0}","{""FishSmall"":1,""FishBig"":1,""CanSmall"":0,""CanBig"":1,""Seaweed"":0}",1.0,661.2799999999813,1.0,2.0,2.0,2.0,2.0,2.0,2.0,2.0,2.0,2.0,2.0,2.0,2.0,2.0,100.0,23,1.0
6729126.0,22,Female,2.0,Adults,4.0,1.0,trial_24,,,,,2695.9000000003725,,,"{""FishSmall"":3,""FishBig"":1,""CanSmall"":1,""CanBig"":0,""Seaweed"":1}","{""FishSmall"":0,""FishBig"":0,""CanSmall"":2,""CanBig"":2,""Seaweed"":2}",50.0,0.0,6.666666666666667,-10.0,9.428090415820634,8.16496580927726,1.0,2.0,-16.666666666666668,-1.2631246065433732,1.0,-50.0,"{""FishSmall"":1,""FishBig"":1,""CanSmall"":1,""CanBig"":0,""Seaweed"":0}","{""FishSmall"":0,""FishBig"":0,""CanSmall"":3,""CanBig"":0,""Seaweed"":0}",1.0,661.2799999999813,1.0,2.0,2.0,2.0,2.0,2.0,2.0,2.0,2.0,2.0,2.0,2.0,2.0,2.0,100.0,24,1.0
6729126.0,22,Female,2.0,Adults,4.0,1.0,trial_25,,,,,1007.5999999996276,,,"{""FishSmall"":0,""FishBig"":0,""CanSmall"":2,""CanBig"":1,""Seaweed"":3}","{""FishSmall"":1,""FishBig"":0,""CanSmall"":2,""CanBig"":0,""Seaweed"":3}",0.0,0.0,-6.666666666666667,-1.6666666666666667,7.453559924999299,6.871842709362768,3.0,3.0,5.0,-0.5817172156365311,0.0,0.0,"{""FishSmall"":1,""FishBig"":0,""CanSmall"":1,""CanBig"":1,""Seaweed"":0}","{""FishSmall"":0,""FishBig"":1,""CanSmall"":2,""CanBig"":0,""Seaweed"":0}",1.0,661.2799999999813,1.0,2.0,2.0,2.0,2.0,2.0,2.0,2.0,2.0,2.0,2.0,2.0,2.0,2.0,100.0,25,1.0
6729126.0,22,Female,2.0,Adults,4.0,0.0,trial_26,,,,,3796.600000000559,,,"{""FishSmall"":2,""FishBig"":0,""CanSmall"":1,""CanBig"":0,""Seaweed"":3}","{""FishSmall"":0,""FishBig"":0,""CanSmall"":3,""CanBig"":2,""Seaweed"":1}",0.0,0.0,1.6666666666666667,-11.666666666666666,6.871842709362768,6.871842709362768,3.0,1.0,-13.333333333333332,0.0,-2.0,0.0,"{""FishSmall"":2,""FishBig"":1,""CanSmall"":0,""CanBig"":0,""Seaweed"":0}","{""FishSmall"":0,""FishBig"":0,""CanSmall"":2,""CanBig"":1,""Seaweed"":0}",1.0,661.2799999999813,1.0,2.0,2.0,2.0,2.0,2.0,2.0,2.0,2.0,2.0,2.0,2.0,2.0,2.0,100.0,26,1.0
6729126.0,22,Female,2.0,Adults,4.0,1.0,trial_27,,1.0,,,1630.5999999996277,1789.5,,"{""FishSmall"":0,""FishBig"":0,""CanSmall"":1,""CanBig"":3,""Seaweed"":2}","{""FishSmall"":0,""FishBig"":0,""CanSmall"":2,""CanBig"":1,""Seaweed"":3}",50.0,50.0,-11.666666666666666,-6.666666666666667,8.975274678557506,7.453559924999299,2.0,3.0,4.999999999999999,-1.5217147535582072,1.0,0.0,"{""FishSmall"":1,""FishBig"":0,""CanSmall"":1,""CanBig"":1,""Seaweed"":0}","{""FishSmall"":0,""FishBig"":0,""CanSmall"":2,""CanBig"":1,""Seaweed"":0}",1.0,661.2799999999813,1.0,2.0,2.0,2.0,2.0,2.0,2.0,2.0,2.0,2.0,2.0,2.0,2.0,2.0,100.0,27,1.0
6729126.0,22,Female,2.0,Adults,4.0,1.0,trial_28,,,,,2493.0,,,"{""FishSmall"":2,""FishBig"":0,""CanSmall"":4,""CanBig"":0,""Seaweed"":0}","{""FishSmall"":3,""FishBig"":1,""CanSmall"":0,""CanBig"":0,""Seaweed"":2}",0.0,0.0,-3.3333333333333335,8.333333333333334,9.428090415820634,6.871842709362768,0.0,2.0,11.666666666666668,-2.5562477064578664,2.0,0.0,"{""FishSmall"":1,""FishBig"":0,""CanSmall"":2,""CanBig"":0,""Seaweed"":0}","{""FishSmall"":3,""FishBig"":0,""CanSmall"":0,""CanBig"":0,""Seaweed"":0}",1.0,661.2799999999813,1.0,2.0,2.0,2.0,2.0,2.0,2.0,2.0,2.0,2.0,2.0,2.0,2.0,2.0,100.0,28,1.0
6729126.0,22,Female,2.0,Adults,4.0,1.0,trial_29,,,1.0,,1092.2999999998135,,1223.5,"{""FishSmall"":1,""FishBig"":0,""CanSmall"":3,""CanBig"":1,""Seaweed"":1}","{""FishSmall"":1,""FishBig"":0,""CanSmall"":3,""CanBig"":1,""Seaweed"":1}",0.0,100.0,-6.666666666666667,-6.666666666666667,9.428090415820632,9.428090415820632,1.0,1.0,0.0,0.0,0.0,100.0,"{""FishSmall"":0,""FishBig"":0,""CanSmall"":2,""CanBig"":1,""Seaweed"":0}","{""FishSmall"":0,""FishBig"":0,""CanSmall"":2,""CanBig"":1,""Seaweed"":0}",1.0,661.2799999999813,1.0,2.0,2.0,2.0,2.0,2.0,2.0,2.0,2.0,2.0,2.0,2.0,2.0,2.0,100.0,29,1.0
6729126.0,22,Female,2.0,Adults,4.0,1.0,trial_30,,0.0,,,3383.7999999998137,1844.5999999996277,,"{""FishSmall"":2,""FishBig"":4,""CanSmall"":0,""CanBig"":0,""Seaweed"":0}","{""FishSmall"":0,""FishBig"":0,""CanSmall"":4,""CanBig"":1,""Seaweed"":1}",100.0,0.0,16.666666666666668,-10.0,4.714045207910316,5.773502691896258,0.0,1.0,-26.666666666666668,1.059457483985942,1.0,-100.0,"{""FishSmall"":1,""FishBig"":2,""CanSmall"":0,""CanBig"":0,""Seaweed"":0}","{""FishSmall"":0,""FishBig"":0,""CanSmall"":2,""CanBig"":1,""Seaweed"":0}",1.0,661.2799999999813,1.0,2.0,2.0,2.0,2.0,2.0,2.0,2.0,2.0,2.0,2.0,2.0,2.0,2.0,100.0,30,1.0
6729127.0,55,Female,2.0,Adults,4.0,1.0,trial_1,,,0.0,,4878.100000008941,,6398.79999999702,"{""FishSmall"":1,""FishBig"":0,""CanSmall"":2,""CanBig"":0,""Seaweed"":3}","{""FishSmall"":2,""FishBig"":0,""CanSmall"":1,""CanBig"":0,""Seaweed"":3}",50.0,100.0,-1.6666666666666667,1.6666666666666667,6.871842709362768,6.871842709362768,3.0,3.0,3.3333333333333335,0.0,0.0,50.0,"{""FishSmall"":3,""FishBig"":0,""CanSmall"":0,""CanBig"":0,""Seaweed"":0}","{""FishSmall"":0,""FishBig"":1,""CanSmall"":2,""CanBig"":0,""Seaweed"":0}",1.0,803.2599999964237,1.0,2.0,2.0,2.0,2.0,2.0,2.0,2.0,2.0,2.0,2.0,2.0,2.0,2.0,100.0,1,0.9428571428571428
6729127.0,55,Female,2.0,Adults,4.0,1.0,trial_2,,,1.0,,10823.30000001192,,1154.2000000029802,"{""FishSmall"":2,""FishBig"":1,""CanSmall"":1,""CanBig"":0,""Seaweed"":2}","{""FishSmall"":0,""FishBig"":0,""CanSmall"":1,""CanBig"":4,""Seaweed"":1}",0.0,100.0,5.0,-15.0,9.574271077563381,7.637626158259733,2.0,1.0,-20.0,-1.9366449193036477,-1.0,100.0,"{""FishSmall"":2,""FishBig"":1,""CanSmall"":0,""CanBig"":0,""Seaweed"":0}","{""FishSmall"":0,""FishBig"":0,""CanSmall"":2,""CanBig"":1,""Seaweed"":0}",1.0,803.2599999964237,1.0,2.0,2.0,2.0,2.0,2.0,2.0,2.0,2.0,2.0,2.0,2.0,2.0,2.0,100.0,2,0.9428571428571428
6729127.0,55,Female,2.0,Adults,4.0,1.0,trial_3,,1.0,0.0,,2186.0,4120.29999999702,3531.4000000059605,"{""FishSmall"":0,""FishBig"":0,""CanSmall"":3,""CanBig"":2,""Seaweed"":1}","{""FishSmall"":1,""FishBig"":0,""CanSmall"":2,""CanBig"":0,""Seaweed"":3}",50.0,100.0,-11.666666666666666,-1.6666666666666667,6.871842709362768,6.871842709362768,1.0,3.0,10.0,0.0,2.0,50.0,"{""FishSmall"":0,""FishBig"":0,""CanSmall"":2,""CanBig"":1,""Seaweed"":0}","{""FishSmall"":1,""FishBig"":0,""CanSmall"":1,""CanBig"":1,""Seaweed"":0}",1.0,803.2599999964237,1.0,2.0,2.0,2.0,2.0,2.0,2.0,2.0,2.0,2.0,2.0,2.0,2.0,2.0,100.0,3,0.9428571428571428
6729127.0,55,Female,2.0,Adults,4.0,0.0,trial_4,,1.0,,,2658.29999999702,2580.20000000298,,"{""FishSmall"":2,""FishBig"":1,""CanSmall"":1,""CanBig"":0,""Seaweed"":2}","{""FishSmall"":0,""FishBig"":0,""CanSmall"":2,""CanBig"":1,""Seaweed"":3}",50.0,50.0,5.0,-6.666666666666667,9.574271077563381,7.453559924999299,2.0,3.0,-11.666666666666668,-2.1207111525640823,1.0,0.0,"{""FishSmall"":1,""FishBig"":0,""CanSmall"":1,""CanBig"":1,""Seaweed"":0}","{""FishSmall"":0,""FishBig"":0,""CanSmall"":2,""CanBig"":1,""Seaweed"":0}",1.0,803.2599999964237,1.0,2.0,2.0,2.0,2.0,2.0,2.0,2.0,2.0,2.0,2.0,2.0,2.0,2.0,100.0,4,0.9428571428571428
6729127.0,55,Female,2.0,Adults,4.0,1.0,trial_5,,,0.0,,2088.5999999940395,,1531.4000000059605,"{""FishSmall"":3,""FishBig"":0,""CanSmall"":2,""CanBig"":0,""Seaweed"":1}","{""FishSmall"":3,""FishBig"":3,""CanSmall"":0,""CanBig"":0,""Seaweed"":0}",0.0,100.0,1.6666666666666667,15.0,8.975274678557506,5.0,1.0,0.0,13.333333333333334,-3.975274678557506,-1.0,100.0,"{""FishSmall"":2,""FishBig"":0,""CanSmall"":1,""CanBig"":0,""Seaweed"":0}","{""FishSmall"":2,""FishBig"":1,""CanSmall"":0,""CanBig"":0,""Seaweed"":0}",1.0,803.2599999964237,1.0,2.0,2.0,2.0,2.0,2.0,2.0,2.0,2.0,2.0,2.0,2.0,2.0,2.0,100.0,5,0.9428571428571428
6729127.0,55,Female,2.0,Adults,4.0,0.0,trial_6,,0.0,,,954.7000000029802,907.7000000029802,,"{""FishSmall"":2,""FishBig"":1,""CanSmall"":0,""CanBig"":0,""Seaweed"":3}","{""FishSmall"":2,""FishBig"":1,""CanSmall"":0,""CanBig"":0,""Seaweed"":3}",100.0,0.0,6.666666666666667,6.666666666666667,7.453559924999299,7.453559924999299,3.0,3.0,0.0,0.0,0.0,-100.0,"{""FishSmall"":3,""FishBig"":0,""CanSmall"":0,""CanBig"":0,""Seaweed"":0}","{""FishSmall"":2,""FishBig"":1,""CanSmall"":0,""CanBig"":0,""Seaweed"":0}",1.0,803.2599999964237,1.0,2.0,2.0,2.0,2.0,2.0,2.0,2.0,2.0,2.0,2.0,2.0,2.0,2.0,100.0,6,0.9428571428571428
6729127.0,55,Female,2.0,Adults,4.0,0.0,trial_7,,0.0,1.0,,4026.20000000298,2280.20000000298,6804.59999999404,"{""FishSmall"":1,""FishBig"":2,""CanSmall"":0,""CanBig"":0,""Seaweed"":3}","{""FishSmall"":0,""FishBig"":0,""CanSmall"":3,""CanBig"":0,""Seaweed"":3}",50.0,100.0,8.333333333333334,-5.0,8.975274678557506,5.0,3.0,3.0,-13.333333333333334,-3.975274678557506,0.0,50.0,"{""FishSmall"":1,""FishBig"":1,""CanSmall"":1,""CanBig"":0,""Seaweed"":0}","{""FishSmall"":1,""FishBig"":0,""CanSmall"":2,""CanBig"":0,""Seaweed"":0}",1.0,803.2599999964237,1.0,2.0,2.0,2.0,2.0,2.0,2.0,2.0,2.0,2.0,2.0,2.0,2.0,2.0,100.0,7,0.9428571428571428
6729127.0,55,Female,2.0,Adults,4.0,1.0,trial_8,,,0.0,,2385.8999999910598,,1154.7000000029802,"{""FishSmall"":0,""FishBig"":0,""CanSmall"":3,""CanBig"":3,""Seaweed"":0}","{""FishSmall"":2,""FishBig"":0,""CanSmall"":2,""CanBig"":0,""Seaweed"":2}",50.0,50.0,-15.0,0.0,5.0,8.16496580927726,0.0,2.0,15.0,3.164965809277261,2.0,0.0,"{""FishSmall"":0,""FishBig"":0,""CanSmall"":1,""CanBig"":2,""Seaweed"":0}","{""FishSmall"":1,""FishBig"":2,""CanSmall"":0,""CanBig"":0,""Seaweed"":0}",1.0,803.2599999964237,1.0,2.0,2.0,2.0,2.0,2.0,2.0,2.0,2.0,2.0,2.0,2.0,2.0,2.0,100.0,8,0.9428571428571428
6729127.0,55,Female,2.0,Adults,4.0,1.0,trial_9,,1.0,0.0,,2698.5,3216.29999999702,2388.0999999940395,"{""FishSmall"":0,""FishBig"":0,""CanSmall"":5,""CanBig"":1,""Seaweed"":0}","{""FishSmall"":3,""FishBig"":1,""CanSmall"":1,""CanBig"":0,""Seaweed"":1}",50.0,100.0,-11.666666666666666,6.666666666666667,3.72677996249965,9.428090415820634,0.0,1.0,18.333333333333332,5.701310453320984,1.0,50.0,"{""FishSmall"":0,""FishBig"":0,""CanSmall"":3,""CanBig"":0,""Seaweed"":0}","{""FishSmall"":2,""FishBig"":0,""CanSmall"":1,""CanBig"":0,""Seaweed"":0}",1.0,803.2599999964237,1.0,2.0,2.0,2.0,2.0,2.0,2.0,2.0,2.0,2.0,2.0,2.0,2.0,2.0,100.0,9,0.9428571428571428
6729127.0,55,Female,2.0,Adults,4.0,1.0,trial_10,,,0.0,,1720.8999999910593,,2004.800000011921,"{""FishSmall"":1,""FishBig"":0,""CanSmall"":2,""CanBig"":1,""Seaweed"":2}","{""FishSmall"":3,""FishBig"":2,""CanSmall"":0,""CanBig"":0,""Seaweed"":1}",50.0,100.0,-5.0,11.666666666666666,9.574271077563381,6.871842709362768,2.0,1.0,16.666666666666664,-2.7024283682006134,-1.0,50.0,"{""FishSmall"":0,""FishBig"":1,""CanSmall"":2,""CanBig"":0,""Seaweed"":0}","{""FishSmall"":1,""FishBig"":2,""CanSmall"":0,""CanBig"":0,""Seaweed"":0}",1.0,803.2599999964237,1.0,2.0,2.0,2.0,2.0,2.0,2.0,2.0,2.0,2.0,2.0,2.0,2.0,2.0,100.0,10,0.9428571428571428
6729127.0,55,Female,2.0,Adults,4.0,,catch_1,0.0,,,6125.699999988079,,,,"{""FishSmall"":4,""FishBig"":2,""CanSmall"":0,""CanBig"":0,""Seaweed"":0}","{""FishSmall"":4,""FishBig"":2,""CanSmall"":0,""CanBig"":0,""Seaweed"":0}",0.0,0.0,,,,,,,,,,,"{""FishSmall"":2,""FishBig"":1,""CanSmall"":0,""CanBig"":0,""Seaweed"":0}","{""FishSmall"":2,""FishBig"":1,""CanSmall"":0,""CanBig"":0,""Seaweed"":0}",1.0,803.2599999964237,1.0,2.0,2.0,2.0,2.0,2.0,2.0,2.0,2.0,2.0,2.0,2.0,2.0,2.0,100.0,,0.9428571428571428
6729127.0,55,Female,2.0,Adults,4.0,0.0,trial_11,,0.0,,,2808.79999999702,1992.699999988079,,"{""FishSmall"":1,""FishBig"":3,""CanSmall"":0,""CanBig"":0,""Seaweed"":2}","{""FishSmall"":0,""FishBig"":0,""CanSmall"":2,""CanBig"":3,""Seaweed"":1}",100.0,0.0,11.666666666666666,-13.333333333333334,8.975274678557506,7.453559924999299,2.0,1.0,-25.0,-1.5217147535582072,-1.0,-100.0,"{""FishSmall"":1,""FishBig"":1,""CanSmall"":0,""CanBig"":1,""Seaweed"":0}","{""FishSmall"":1,""FishBig"":0,""CanSmall"":1,""CanBig"":1,""Seaweed"":0}",1.0,803.2599999964237,1.0,2.0,2.0,2.0,2.0,2.0,2.0,2.0,2.0,2.0,2.0,2.0,2.0,2.0,100.0,11,0.9428571428571428
6729127.0,55,Female,2.0,Adults,4.0,1.0,trial_12,,1.0,0.0,,1790.9000000059605,3720.400000005961,2323.5999999940395,"{""FishSmall"":0,""FishBig"":0,""CanSmall"":4,""CanBig"":1,""Seaweed"":1}","{""FishSmall"":3,""FishBig"":0,""CanSmall"":1,""CanBig"":0,""Seaweed"":2}",50.0,100.0,-10.0,3.3333333333333335,5.773502691896258,7.453559924999298,1.0,2.0,13.333333333333334,1.6800572331030397,1.0,50.0,"{""FishSmall"":0,""FishBig"":0,""CanSmall"":2,""CanBig"":1,""Seaweed"":0}","{""FishSmall"":2,""FishBig"":0,""CanSmall"":1,""CanBig"":0,""Seaweed"":0}",1.0,803.2599999964237,1.0,2.0,2.0,2.0,2.0,2.0,2.0,2.0,2.0,2.0,2.0,2.0,2.0,2.0,100.0,12,0.9428571428571428
6729127.0,55,Female,2.0,Adults,4.0,1.0,trial_13,,,0.0,,2969.1000000089407,,2039.8999999910595,"{""FishSmall"":3,""FishBig"":1,""CanSmall"":1,""CanBig"":0,""Seaweed"":1}","{""FishSmall"":2,""FishBig"":1,""CanSmall"":0,""CanBig"":0,""Seaweed"":3}",50.0,100.0,6.666666666666667,6.666666666666667,9.428090415820634,7.453559924999299,1.0,3.0,0.0,-1.9745304908213352,2.0,50.0,"{""FishSmall"":1,""FishBig"":1,""CanSmall"":1,""CanBig"":0,""Seaweed"":0}","{""FishSmall"":1,""FishBig"":1,""CanSmall"":0,""CanBig"":1,""Seaweed"":0}",1.0,803.2599999964237,1.0,2.0,2.0,2.0,2.0,2.0,2.0,2.0,2.0,2.0,2.0,2.0,2.0,2.0,100.0,13,0.9428571428571428
6729127.0,55,Female,2.0,Adults,4.0,1.0,trial_14,,,,,3533.0,,,"{""FishSmall"":2,""FishBig"":0,""CanSmall"":3,""CanBig"":0,""Seaweed"":1}","{""FishSmall"":3,""FishBig"":0,""CanSmall"":2,""CanBig"":0,""Seaweed"":1}",0.0,0.0,-1.6666666666666667,1.6666666666666667,8.975274678557506,8.975274678557506,1.0,1.0,3.3333333333333335,0.0,0.0,0.0,"{""FishSmall"":1,""FishBig"":0,""CanSmall"":2,""CanBig"":0,""Seaweed"":0}","{""FishSmall"":3,""FishBig"":0,""CanSmall"":0,""CanBig"":0,""Seaweed"":0}",1.0,803.2599999964237,1.0,2.0,2.0,2.0,2.0,2.0,2.0,2.0,2.0,2.0,2.0,2.0,2.0,2.0,100.0,14,0.9428571428571428
6729127.0,55,Female,2.0,Adults,4.0,0.0,trial_15,,0.0,1.0,,1742.5,839.2000000029802,4043.900000005961,"{""FishSmall"":1,""FishBig"":2,""CanSmall"":0,""CanBig"":0,""Seaweed"":3}","{""FishSmall"":3,""FishBig"":0,""CanSmall"":2,""CanBig"":0,""Seaweed"":1}",100.0,100.0,8.333333333333334,1.6666666666666667,8.975274678557506,8.975274678557506,3.0,1.0,-6.666666666666667,0.0,-2.0,0.0,"{""FishSmall"":1,""FishBig"":2,""CanSmall"":0,""CanBig"":0,""Seaweed"":0}","{""FishSmall"":1,""FishBig"":0,""CanSmall"":2,""CanBig"":0,""Seaweed"":0}",1.0,803.2599999964237,1.0,2.0,2.0,2.0,2.0,2.0,2.0,2.0,2.0,2.0,2.0,2.0,2.0,2.0,100.0,15,0.9428571428571428
6729127.0,55,Female,2.0,Adults,4.0,0.0,trial_16,,0.0,,,1697.7000000029802,776.3999999910593,,"{""FishSmall"":3,""FishBig"":1,""CanSmall"":1,""CanBig"":0,""Seaweed"":1}","{""FishSmall"":0,""FishBig"":1,""CanSmall"":0,""CanBig"":1,""Seaweed"":4}",100.0,0.0,6.666666666666667,0.0,9.428090415820634,11.547005383792516,1.0,4.0,-6.666666666666667,2.1189149679718824,3.0,-100.0,"{""FishSmall"":1,""FishBig"":1,""CanSmall"":1,""CanBig"":0,""Seaweed"":0}","{""FishSmall"":1,""FishBig"":1,""CanSmall"":1,""CanBig"":0,""Seaweed"":0}",1.0,803.2599999964237,1.0,2.0,2.0,2.0,2.0,2.0,2.0,2.0,2.0,2.0,2.0,2.0,2.0,2.0,100.0,16,0.9428571428571428
6729127.0,55,Female,2.0,Adults,4.0,1.0,trial_17,,,,,1943.0,,,"{""FishSmall"":0,""FishBig"":0,""CanSmall"":1,""CanBig"":2,""Seaweed"":3}","{""FishSmall"":2,""FishBig"":0,""CanSmall"":2,""CanBig"":0,""Seaweed"":2}",50.0,50.0,-8.333333333333334,0.0,8.975274678557506,8.16496580927726,3.0,2.0,8.333333333333334,-0.8103088692802451,-1.0,0.0,"{""FishSmall"":0,""FishBig"":1,""CanSmall"":1,""CanBig"":1,""Seaweed"":0}","{""FishSmall"":1,""FishBig"":0,""CanSmall"":1,""CanBig"":1,""Seaweed"":0}",1.0,803.2599999964237,1.0,2.0,2.0,2.0,2.0,2.0,2.0,2.0,2.0,2.0,2.0,2.0,2.0,2.0,100.0,17,0.9428571428571428
6729127.0,55,Female,2.0,Adults,4.0,0.0,trial_18,,0.0,1.0,,1703.5,1955.5,2568.0999999940395,"{""FishSmall"":2,""FishBig"":0,""CanSmall"":1,""CanBig"":0,""Seaweed"":3}","{""FishSmall"":0,""FishBig"":0,""CanSmall"":2,""CanBig"":1,""Seaweed"":3}",100.0,100.0,1.6666666666666667,-6.666666666666667,6.871842709362768,7.453559924999299,3.0,3.0,-8.333333333333334,0.5817172156365311,0.0,0.0,"{""FishSmall"":2,""FishBig"":1,""CanSmall"":0,""CanBig"":0,""Seaweed"":0}","{""FishSmall"":0,""FishBig"":0,""CanSmall"":1,""CanBig"":2,""Seaweed"":0}",1.0,803.2599999964237,1.0,2.0,2.0,2.0,2.0,2.0,2.0,2.0,2.0,2.0,2.0,2.0,2.0,2.0,100.0,18,0.9428571428571428
6729127.0,55,Female,2.0,Adults,4.0,1.0,trial_19,,1.0,1.0,,6457.9000000059605,3384.5,3548.1000000089407,"{""FishSmall"":0,""FishBig"":0,""CanSmall"":2,""CanBig"":1,""Seaweed"":3}","{""FishSmall"":2,""FishBig"":0,""CanSmall"":2,""CanBig"":0,""Seaweed"":2}",100.0,50.0,-6.666666666666667,0.0,7.453559924999299,8.16496580927726,3.0,2.0,6.666666666666667,0.711405884277962,-1.0,-50.0,"{""FishSmall"":0,""FishBig"":1,""CanSmall"":1,""CanBig"":1,""Seaweed"":0}","{""FishSmall"":1,""FishBig"":0,""CanSmall"":2,""CanBig"":0,""Seaweed"":0}",1.0,803.2599999964237,1.0,2.0,2.0,2.0,2.0,2.0,2.0,2.0,2.0,2.0,2.0,2.0,2.0,2.0,100.0,19,0.9428571428571428
6729127.0,55,Female,2.0,Adults,4.0,0.0,trial_20,,,,,1834.4000000059605,,,"{""FishSmall"":4,""FishBig"":0,""CanSmall"":1,""CanBig"":0,""Seaweed"":1}","{""FishSmall"":1,""FishBig"":1,""CanSmall"":1,""CanBig"":0,""Seaweed"":3}",50.0,50.0,5.0,3.3333333333333335,7.637626158259733,9.428090415820634,1.0,3.0,-1.6666666666666665,1.7904642575609007,2.0,0.0,"{""FishSmall"":2,""FishBig"":0,""CanSmall"":1,""CanBig"":0,""Seaweed"":0}","{""FishSmall"":1,""FishBig"":1,""CanSmall"":0,""CanBig"":1,""Seaweed"":0}",1.0,803.2599999964237,1.0,2.0,2.0,2.0,2.0,2.0,2.0,2.0,2.0,2.0,2.0,2.0,2.0,2.0,100.0,20,0.9428571428571428
6729127.0,55,Female,2.0,Adults,4.0,,catch_2,1.0,,,3148.29999999702,,,,"{""FishSmall"":0,""FishBig"":0,""CanSmall"":3,""CanBig"":3,""Seaweed"":0}","{""FishSmall"":0,""FishBig"":0,""CanSmall"":3,""CanBig"":3,""Seaweed"":0}",0.0,0.0,,,,,,,,,,,"{""FishSmall"":0,""FishBig"":0,""CanSmall"":2,""CanBig"":1,""Seaweed"":0}","{""FishSmall"":0,""FishBig"":0,""CanSmall"":1,""CanBig"":2,""Seaweed"":0}",1.0,803.2599999964237,1.0,2.0,2.0,2.0,2.0,2.0,2.0,2.0,2.0,2.0,2.0,2.0,2.0,2.0,100.0,,0.9428571428571428
6729127.0,55,Female,2.0,Adults,4.0,1.0,trial_21,,1.0,0.0,,4897.70000000298,3136.199999988079,3299.8999999910598,"{""FishSmall"":0,""FishBig"":0,""CanSmall"":1,""CanBig"":3,""Seaweed"":2}","{""FishSmall"":2,""FishBig"":2,""CanSmall"":0,""CanBig"":0,""Seaweed"":2}",100.0,50.0,-11.666666666666666,10.0,8.975274678557506,8.16496580927726,2.0,2.0,21.666666666666664,-0.8103088692802451,0.0,-50.0,"{""FishSmall"":0,""FishBig"":0,""CanSmall"":0,""CanBig"":3,""Seaweed"":0}","{""FishSmall"":2,""FishBig"":0,""CanSmall"":1,""CanBig"":0,""Seaweed"":0}",1.0,803.2599999964237,1.0,2.0,2.0,2.0,2.0,2.0,2.0,2.0,2.0,2.0,2.0,2.0,2.0,2.0,100.0,21,0.9428571428571428
6729127.0,55,Female,2.0,Adults,4.0,0.0,trial_22,,0.0,1.0,,4034.8999999910593,2287.4000000059605,3628.09999999404,"{""FishSmall"":3,""FishBig"":1,""CanSmall"":1,""CanBig"":0,""Seaweed"":1}","{""FishSmall"":1,""FishBig"":0,""CanSmall"":3,""CanBig"":1,""Seaweed"":1}",50.0,100.0,6.666666666666667,-6.666666666666667,9.428090415820634,9.428090415820632,1.0,1.0,-13.333333333333334,-1.7763568394002505e-15,0.0,50.0,"{""FishSmall"":2,""FishBig"":0,""CanSmall"":1,""CanBig"":0,""Seaweed"":0}","{""FishSmall"":1,""FishBig"":0,""CanSmall"":2,""CanBig"":0,""Seaweed"":0}",1.0,803.2599999964237,1.0,2.0,2.0,2.0,2.0,2.0,2.0,2.0,2.0,2.0,2.0,2.0,2.0,2.0,100.0,22,0.9428571428571428
6729127.0,55,Female,2.0,Adults,4.0,1.0,trial_23,,0.0,,,2059.0,4296.59999999404,,"{""FishSmall"":3,""FishBig"":0,""CanSmall"":1,""CanBig"":0,""Seaweed"":2}","{""FishSmall"":3,""FishBig"":2,""CanSmall"":0,""CanBig"":0,""Seaweed"":1}",50.0,50.0,3.3333333333333335,11.666666666666666,7.453559924999298,6.871842709362768,2.0,1.0,8.333333333333332,-0.5817172156365302,-1.0,0.0,"{""FishSmall"":2,""FishBig"":0,""CanSmall"":1,""CanBig"":0,""Seaweed"":0}","{""FishSmall"":3,""FishBig"":0,""CanSmall"":0,""CanBig"":0,""Seaweed"":0}",1.0,803.2599999964237,1.0,2.0,2.0,2.0,2.0,2.0,2.0,2.0,2.0,2.0,2.0,2.0,2.0,2.0,100.0,23,0.9428571428571428
6729127.0,55,Female,2.0,Adults,4.0,1.0,trial_24,,0.0,,,2629.29999999702,1338.7000000029802,,"{""FishSmall"":4,""FishBig"":1,""CanSmall"":1,""CanBig"":0,""Seaweed"":0}","{""FishSmall"":1,""FishBig"":1,""CanSmall"":1,""CanBig"":0,""Seaweed"":3}",100.0,0.0,8.333333333333334,3.3333333333333335,8.975274678557506,9.428090415820634,0.0,3.0,-5.0,0.45281573726312807,3.0,-100.0,"{""FishSmall"":1,""FishBig"":1,""CanSmall"":1,""CanBig"":0,""Seaweed"":0}","{""FishSmall"":1,""FishBig"":0,""CanSmall"":1,""CanBig"":1,""Seaweed"":0}",1.0,803.2599999964237,1.0,2.0,2.0,2.0,2.0,2.0,2.0,2.0,2.0,2.0,2.0,2.0,2.0,2.0,100.0,24,0.9428571428571428
6729127.0,55,Female,2.0,Adults,4.0,1.0,trial_25,,,0.0,,3195.79999999702,,1336.2999999970198,"{""FishSmall"":1,""FishBig"":0,""CanSmall"":1,""CanBig"":1,""Seaweed"":3}","{""FishSmall"":2,""FishBig"":3,""CanSmall"":0,""CanBig"":0,""Seaweed"":1}",50.0,100.0,-3.3333333333333335,13.333333333333334,9.428090415820634,7.453559924999299,3.0,1.0,16.666666666666668,-1.9745304908213352,-2.0,50.0,"{""FishSmall"":1,""FishBig"":0,""CanSmall"":1,""CanBig"":1,""Seaweed"":0}","{""FishSmall"":1,""FishBig"":2,""CanSmall"":0,""CanBig"":0,""Seaweed"":0}",1.0,803.2599999964237,1.0,2.0,2.0,2.0,2.0,2.0,2.0,2.0,2.0,2.0,2.0,2.0,2.0,2.0,100.0,25,0.9428571428571428
6729127.0,55,Female,2.0,Adults,4.0,1.0,trial_26,,,0.0,,2454.8999999910598,,1156.5,"{""FishSmall"":4,""FishBig"":0,""CanSmall"":0,""CanBig"":0,""Seaweed"":2}","{""FishSmall"":3,""FishBig"":0,""CanSmall"":2,""CanBig"":0,""Seaweed"":1}",0.0,100.0,6.666666666666667,1.6666666666666667,4.714045207910317,8.975274678557506,2.0,1.0,-5.0,4.261229470647189,-1.0,100.0,"{""FishSmall"":2,""FishBig"":0,""CanSmall"":0,""CanBig"":1,""Seaweed"":0}","{""FishSmall"":2,""FishBig"":0,""CanSmall"":1,""CanBig"":0,""Seaweed"":0}",1.0,803.2599999964237,1.0,2.0,2.0,2.0,2.0,2.0,2.0,2.0,2.0,2.0,2.0,2.0,2.0,2.0,100.0,26,0.9428571428571428
6729127.0,55,Female,2.0,Adults,4.0,1.0,trial_27,,,,,2146.20000000298,,,"{""FishSmall"":1,""FishBig"":0,""CanSmall"":1,""CanBig"":1,""Seaweed"":3}","{""FishSmall"":0,""FishBig"":0,""CanSmall"":1,""CanBig"":4,""Seaweed"":1}",0.0,50.0,-3.3333333333333335,-15.0,9.428090415820634,7.637626158259733,3.0,1.0,-11.666666666666666,-1.7904642575609007,-2.0,50.0,"{""FishSmall"":2,""FishBig"":0,""CanSmall"":1,""CanBig"":0,""Seaweed"":0}","{""FishSmall"":0,""FishBig"":0,""CanSmall"":0,""CanBig"":3,""Seaweed"":0}",1.0,803.2599999964237,1.0,2.0,2.0,2.0,2.0,2.0,2.0,2.0,2.0,2.0,2.0,2.0,2.0,2.0,100.0,27,0.9428571428571428
6729127.0,55,Female,2.0,Adults,4.0,1.0,trial_28,,1.0,0.0,,2013.70000000298,3624.900000005961,2283.29999999702,"{""FishSmall"":2,""FishBig"":0,""CanSmall"":2,""CanBig"":0,""Seaweed"":2}","{""FishSmall"":2,""FishBig"":2,""CanSmall"":0,""CanBig"":0,""Seaweed"":2}",50.0,50.0,0.0,10.0,8.16496580927726,8.16496580927726,2.0,2.0,10.0,0.0,0.0,0.0,"{""FishSmall"":0,""FishBig"":0,""CanSmall"":3,""CanBig"":0,""Seaweed"":0}","{""FishSmall"":1,""FishBig"":2,""CanSmall"":0,""CanBig"":0,""Seaweed"":0}",1.0,803.2599999964237,1.0,2.0,2.0,2.0,2.0,2.0,2.0,2.0,2.0,2.0,2.0,2.0,2.0,2.0,100.0,28,0.9428571428571428
6729127.0,55,Female,2.0,Adults,4.0,1.0,trial_29,,,0.0,,3939.3999999910593,,1275.5999999940395,"{""FishSmall"":2,""FishBig"":0,""CanSmall"":2,""CanBig"":0,""Seaweed"":2}","{""FishSmall"":2,""FishBig"":3,""CanSmall"":0,""CanBig"":0,""Seaweed"":1}",0.0,100.0,0.0,13.333333333333334,8.16496580927726,7.453559924999299,2.0,1.0,13.333333333333334,-0.711405884277962,-1.0,100.0,"{""FishSmall"":0,""FishBig"":1,""CanSmall"":1,""CanBig"":1,""Seaweed"":0}","{""FishSmall"":1,""FishBig"":2,""CanSmall"":0,""CanBig"":0,""Seaweed"":0}",1.0,803.2599999964237,1.0,2.0,2.0,2.0,2.0,2.0,2.0,2.0,2.0,2.0,2.0,2.0,2.0,2.0,100.0,29,0.9428571428571428
6729127.0,55,Female,2.0,Adults,4.0,1.0,trial_30,,,,,3819.70000000298,,,"{""FishSmall"":1,""FishBig"":0,""CanSmall"":3,""CanBig"":1,""Seaweed"":1}","{""FishSmall"":2,""FishBig"":1,""CanSmall"":1,""CanBig"":0,""Seaweed"":2}",0.0,50.0,-6.666666666666667,5.0,9.428090415820632,9.574271077563381,1.0,2.0,11.666666666666668,0.1461806617427488,1.0,50.0,"{""FishSmall"":0,""FishBig"":0,""CanSmall"":2,""CanBig"":1,""Seaweed"":0}","{""FishSmall"":2,""FishBig"":1,""CanSmall"":0,""CanBig"":0,""Seaweed"":0}",1.0,803.2599999964237,1.0,2.0,2.0,2.0,2.0,2.0,2.0,2.0,2.0,2.0,2.0,2.0,2.0,2.0,100.0,30,0.9428571428571428
6729128.0,48,Male,1.0,Adults,4.0,1.0,trial_1,,1.0,0.0,,3261.300000011921,10062.80000001192,1608.100000023842,"{""FishSmall"":1,""FishBig"":2,""CanSmall"":0,""CanBig"":0,""Seaweed"":3}","{""FishSmall"":5,""FishBig"":1,""CanSmall"":0,""CanBig"":0,""Seaweed"":0}",100.0,100.0,8.333333333333334,11.666666666666666,8.975274678557506,3.72677996249965,3.0,0.0,3.333333333333332,-5.248494716057856,-3.0,0.0,"{""FishSmall"":1,""FishBig"":2,""CanSmall"":0,""CanBig"":0,""Seaweed"":0}","{""FishSmall"":3,""FishBig"":0,""CanSmall"":0,""CanBig"":0,""Seaweed"":0}",1.0,2440.19999999702,0.9230769230769231,2.0,2.0,2.0,2.0,2.0,2.0,1.0,2.0,2.0,2.0,1.0,2.0,2.0,100.0,1,0.9666666666666667
6729128.0,48,Male,1.0,Adults,4.0,0.0,trial_2,,0.0,0.0,,3231.9000000059605,1383.800000011921,6445.09999999404,"{""FishSmall"":3,""FishBig"":3,""CanSmall"":0,""CanBig"":0,""Seaweed"":0}","{""FishSmall"":4,""FishBig"":1,""CanSmall"":0,""CanBig"":0,""Seaweed"":1}",100.0,50.0,15.0,10.0,5.0,5.773502691896258,0.0,1.0,-5.0,0.7735026918962582,1.0,-50.0,"{""FishSmall"":2,""FishBig"":1,""CanSmall"":0,""CanBig"":0,""Seaweed"":0}","{""FishSmall"":3,""FishBig"":0,""CanSmall"":0,""CanBig"":0,""Seaweed"":0}",1.0,2440.19999999702,0.9230769230769231,2.0,2.0,2.0,2.0,2.0,2.0,1.0,2.0,2.0,2.0,1.0,2.0,2.0,100.0,2,0.9666666666666667
6729128.0,48,Male,1.0,Adults,4.0,0.0,trial_3,,,,,7148.5,,,"{""FishSmall"":2,""FishBig"":1,""CanSmall"":1,""CanBig"":0,""Seaweed"":2}","{""FishSmall"":2,""FishBig"":0,""CanSmall"":1,""CanBig"":0,""Seaweed"":3}",50.0,0.0,5.0,1.6666666666666667,9.574271077563381,6.871842709362768,2.0,3.0,-3.333333333333333,-2.7024283682006134,1.0,-50.0,"{""FishSmall"":3,""FishBig"":0,""CanSmall"":0,""CanBig"":0,""Seaweed"":0}","{""FishSmall"":2,""FishBig"":0,""CanSmall"":1,""CanBig"":0,""Seaweed"":0}",1.0,2440.19999999702,0.9230769230769231,2.0,2.0,2.0,2.0,2.0,2.0,1.0,2.0,2.0,2.0,1.0,2.0,2.0,100.0,3,0.9666666666666667
6729128.0,48,Male,1.0,Adults,4.0,0.0,trial_4,,0.0,,,1759.0999999940395,2878.800000011921,,"{""FishSmall"":3,""FishBig"":2,""CanSmall"":0,""CanBig"":0,""Seaweed"":1}","{""FishSmall"":0,""FishBig"":0,""CanSmall"":1,""CanBig"":4,""Seaweed"":1}",50.0,0.0,11.666666666666666,-15.0,6.871842709362768,7.637626158259733,1.0,1.0,-26.666666666666664,0.7657834488969657,0.0,-50.0,"{""FishSmall"":3,""FishBig"":0,""CanSmall"":0,""CanBig"":0,""Seaweed"":0}","{""FishSmall"":0,""FishBig"":0,""CanSmall"":0,""CanBig"":3,""Seaweed"":0}",1.0,2440.19999999702,0.9230769230769231,2.0,2.0,2.0,2.0,2.0,2.0,1.0,2.0,2.0,2.0,1.0,2.0,2.0,100.0,4,0.9666666666666667
6729128.0,48,Male,1.0,Adults,4.0,1.0,trial_5,,1.0,1.0,,2103.2999999821186,6117.09999999404,2370.300000011921,"{""FishSmall"":1,""FishBig"":0,""CanSmall"":3,""CanBig"":0,""Seaweed"":2}","{""FishSmall"":2,""FishBig"":1,""CanSmall"":1,""CanBig"":0,""Seaweed"":2}",100.0,50.0,-3.3333333333333335,5.0,7.453559924999299,9.574271077563381,2.0,2.0,8.333333333333334,2.1207111525640823,0.0,-50.0,"{""FishSmall"":2,""FishBig"":0,""CanSmall"":1,""CanBig"":0,""Seaweed"":0}","{""FishSmall"":1,""FishBig"":0,""CanSmall"":0,""CanBig"":2,""Seaweed"":0}",1.0,2440.19999999702,0.9230769230769231,2.0,2.0,2.0,2.0,2.0,2.0,1.0,2.0,2.0,2.0,1.0,2.0,2.0,100.0,5,0.9666666666666667
6729128.0,48,Male,1.0,Adults,4.0,1.0,trial_6,,,0.0,,3745.900000005961,,6160.800000011921,"{""FishSmall"":1,""FishBig"":0,""CanSmall"":2,""CanBig"":0,""Seaweed"":3}","{""FishSmall"":4,""FishBig"":0,""CanSmall"":2,""CanBig"":0,""Seaweed"":0}",0.0,100.0,-1.6666666666666667,3.3333333333333335,6.871842709362768,9.428090415820634,3.0,0.0,5.0,2.5562477064578664,-3.0,100.0,"{""FishSmall"":1,""FishBig"":0,""CanSmall"":1,""CanBig"":1,""Seaweed"":0}","{""FishSmall"":2,""FishBig"":0,""CanSmall"":1,""CanBig"":0,""Seaweed"":0}",1.0,2440.19999999702,0.9230769230769231,2.0,2.0,2.0,2.0,2.0,2.0,1.0,2.0,2.0,2.0,1.0,2.0,2.0,100.0,6,0.9666666666666667
6729128.0,48,Male,1.0,Adults,4.0,1.0,trial_7,,,,,3867.7000000178814,,,"{""FishSmall"":0,""FishBig"":0,""CanSmall"":1,""CanBig"":3,""Seaweed"":2}","{""FishSmall"":3,""FishBig"":0,""CanSmall"":0,""CanBig"":0,""Seaweed"":3}",0.0,0.0,-11.666666666666666,5.0,8.975274678557506,5.0,2.0,3.0,16.666666666666664,-3.975274678557506,1.0,0.0,"{""FishSmall"":0,""FishBig"":1,""CanSmall"":0,""CanBig"":2,""Seaweed"":0}","{""FishSmall"":3,""FishBig"":0,""CanSmall"":0,""CanBig"":0,""Seaweed"":0}",1.0,2440.19999999702,0.9230769230769231,2.0,2.0,2.0,2.0,2.0,2.0,1.0,2.0,2.0,2.0,1.0,2.0,2.0,100.0,7,0.9666666666666667
6729128.0,48,Male,1.0,Adults,4.0,1.0,trial_8,,,0.0,,4693.59999999404,,3983.799999982119,"{""FishSmall"":0,""FishBig"":0,""CanSmall"":3,""CanBig"":1,""Seaweed"":2}","{""FishSmall"":3,""FishBig"":0,""CanSmall"":1,""CanBig"":0,""Seaweed"":2}",0.0,50.0,-8.333333333333334,3.3333333333333335,6.871842709362768,7.453559924999298,2.0,2.0,11.666666666666668,0.5817172156365302,0.0,50.0,"{""FishSmall"":0,""FishBig"":0,""CanSmall"":2,""CanBig"":1,""Seaweed"":0}","{""FishSmall"":1,""FishBig"":1,""CanSmall"":0,""CanBig"":1,""Seaweed"":0}",1.0,2440.19999999702,0.9230769230769231,2.0,2.0,2.0,2.0,2.0,2.0,1.0,2.0,2.0,2.0,1.0,2.0,2.0,100.0,8,0.9666666666666667
6729128.0,48,Male,1.0,Adults,4.0,1.0,trial_9,,1.0,1.0,,3596.699999988079,8116.5,4287.199999988079,"{""FishSmall"":0,""FishBig"":0,""CanSmall"":1,""CanBig"":2,""Seaweed"":3}","{""FishSmall"":0,""FishBig"":1,""CanSmall"":0,""CanBig"":1,""Seaweed"":4}",50.0,100.0,-8.333333333333334,0.0,8.975274678557506,11.547005383792516,3.0,4.0,8.333333333333334,2.5717307052350105,1.0,50.0,"{""FishSmall"":1,""FishBig"":0,""CanSmall"":1,""CanBig"":1,""Seaweed"":0}","{""FishSmall"":1,""FishBig"":0,""CanSmall"":1,""CanBig"":1,""Seaweed"":0}",1.0,2440.19999999702,0.9230769230769231,2.0,2.0,2.0,2.0,2.0,2.0,1.0,2.0,2.0,2.0,1.0,2.0,2.0,100.0,9,0.9666666666666667
6729128.0,48,Male,1.0,Adults,4.0,0.0,trial_10,,,,,6301.300000011921,,,"{""FishSmall"":1,""FishBig"":0,""CanSmall"":2,""CanBig"":1,""Seaweed"":2}","{""FishSmall"":1,""FishBig"":0,""CanSmall"":3,""CanBig"":1,""Seaweed"":1}",0.0,50.0,-5.0,-6.666666666666667,9.574271077563381,9.428090415820632,2.0,1.0,-1.666666666666667,-0.1461806617427488,-1.0,50.0,"{""FishSmall"":0,""FishBig"":0,""CanSmall"":1,""CanBig"":2,""Seaweed"":0}","{""FishSmall"":1,""FishBig"":0,""CanSmall"":2,""CanBig"":0,""Seaweed"":0}",1.0,2440.19999999702,0.9230769230769231,2.0,2.0,2.0,2.0,2.0,2.0,1.0,2.0,2.0,2.0,1.0,2.0,2.0,100.0,10,0.9666666666666667
6729128.0,48,Male,1.0,Adults,4.0,,catch_1,0.0,,,3360.2000000178814,,,,"{""FishSmall"":4,""FishBig"":2,""CanSmall"":0,""CanBig"":0,""Seaweed"":0}","{""FishSmall"":4,""FishBig"":2,""CanSmall"":0,""CanBig"":0,""Seaweed"":0}",0.0,0.0,,,,,,,,,,,"{""FishSmall"":2,""FishBig"":1,""CanSmall"":0,""CanBig"":0,""Seaweed"":0}","{""FishSmall"":2,""FishBig"":1,""CanSmall"":0,""CanBig"":0,""Seaweed"":0}",1.0,2440.19999999702,0.9230769230769231,2.0,2.0,2.0,2.0,2.0,2.0,1.0,2.0,2.0,2.0,1.0,2.0,2.0,100.0,,0.9666666666666667
6729128.0,48,Male,1.0,Adults,4.0,0.0,trial_11,,1.0,1.0,,2817.699999988079,3230.699999988079,3055.7999999821186,"{""FishSmall"":1,""FishBig"":1,""CanSmall"":1,""CanBig"":0,""Seaweed"":3}","{""FishSmall"":0,""FishBig"":0,""CanSmall"":3,""CanBig"":1,""Seaweed"":2}",100.0,50.0,3.3333333333333335,-8.333333333333334,9.428090415820634,6.871842709362768,3.0,2.0,-11.666666666666668,-2.5562477064578664,-1.0,-50.0,"{""FishSmall"":1,""FishBig"":0,""CanSmall"":1,""CanBig"":1,""Seaweed"":0}","{""FishSmall"":0,""FishBig"":1,""CanSmall"":2,""CanBig"":0,""Seaweed"":0}",1.0,2440.19999999702,0.9230769230769231,2.0,2.0,2.0,2.0,2.0,2.0,1.0,2.0,2.0,2.0,1.0,2.0,2.0,100.0,11,0.9666666666666667
6729128.0,48,Male,1.0,Adults,4.0,0.0,trial_12,,0.0,1.0,,2020.199999988079,2832.9000000059605,4423.59999999404,"{""FishSmall"":2,""FishBig"":2,""CanSmall"":0,""CanBig"":0,""Seaweed"":2}","{""FishSmall"":1,""FishBig"":0,""CanSmall"":2,""CanBig"":1,""Seaweed"":2}",50.0,100.0,10.0,-5.0,8.16496580927726,9.574271077563381,2.0,2.0,-15.0,1.4093052682861202,0.0,50.0,"{""FishSmall"":0,""FishBig"":3,""CanSmall"":0,""CanBig"":0,""Seaweed"":0}","{""FishSmall"":1,""FishBig"":0,""CanSmall"":1,""CanBig"":1,""Seaweed"":0}",1.0,2440.19999999702,0.9230769230769231,2.0,2.0,2.0,2.0,2.0,2.0,1.0,2.0,2.0,2.0,1.0,2.0,2.0,100.0,12,0.9666666666666667
6729128.0,48,Male,1.0,Adults,4.0,0.0,trial_13,,,1.0,,6057.199999988079,,4912.700000017881,"{""FishSmall"":3,""FishBig"":1,""CanSmall"":1,""CanBig"":0,""Seaweed"":1}","{""FishSmall"":0,""FishBig"":0,""CanSmall"":1,""CanBig"":2,""Seaweed"":3}",50.0,50.0,6.666666666666667,-8.333333333333334,9.428090415820634,8.975274678557506,1.0,3.0,-15.0,-0.45281573726312807,2.0,0.0,"{""FishSmall"":2,""FishBig"":0,""CanSmall"":0,""CanBig"":1,""Seaweed"":0}","{""FishSmall"":1,""FishBig"":0,""CanSmall"":0,""CanBig"":2,""Seaweed"":0}",1.0,2440.19999999702,0.9230769230769231,2.0,2.0,2.0,2.0,2.0,2.0,1.0,2.0,2.0,2.0,1.0,2.0,2.0,100.0,13,0.9666666666666667
6729128.0,48,Male,1.0,Adults,4.0,0.0,trial_14,,0.0,,,3375.7000000178814,3727.400000005961,,"{""FishSmall"":1,""FishBig"":2,""CanSmall"":0,""CanBig"":0,""Seaweed"":3}","{""FishSmall"":3,""FishBig"":0,""CanSmall"":1,""CanBig"":0,""Seaweed"":2}",50.0,0.0,8.333333333333334,3.3333333333333335,8.975274678557506,7.453559924999298,3.0,2.0,-5.0,-1.521714753558208,-1.0,-50.0,"{""FishSmall"":1,""FishBig"":1,""CanSmall"":0,""CanBig"":1,""Seaweed"":0}","{""FishSmall"":1,""FishBig"":0,""CanSmall"":1,""CanBig"":1,""Seaweed"":0}",1.0,2440.19999999702,0.9230769230769231,2.0,2.0,2.0,2.0,2.0,2.0,1.0,2.0,2.0,2.0,1.0,2.0,2.0,100.0,14,0.9666666666666667
6729128.0,48,Male,1.0,Adults,4.0,0.0,trial_15,,1.0,,,6700.0,2779.0999999940395,,"{""FishSmall"":2,""FishBig"":1,""CanSmall"":1,""CanBig"":0,""Seaweed"":2}","{""FishSmall"":2,""FishBig"":1,""CanSmall"":1,""CanBig"":0,""Seaweed"":2}",50.0,0.0,5.0,5.0,9.574271077563381,9.574271077563381,2.0,2.0,0.0,0.0,0.0,-50.0,"{""FishSmall"":1,""FishBig"":0,""CanSmall"":2,""CanBig"":0,""Seaweed"":0}","{""FishSmall"":2,""FishBig"":0,""CanSmall"":1,""CanBig"":0,""Seaweed"":0}",1.0,2440.19999999702,0.9230769230769231,2.0,2.0,2.0,2.0,2.0,2.0,1.0,2.0,2.0,2.0,1.0,2.0,2.0,100.0,15,0.9666666666666667
6729128.0,48,Male,1.0,Adults,4.0,0.0,trial_16,,0.0,,,1046.199999988079,1398.7999999821186,,"{""FishSmall"":5,""FishBig"":0,""CanSmall"":0,""CanBig"":0,""Seaweed"":1}","{""FishSmall"":3,""FishBig"":1,""CanSmall"":1,""CanBig"":0,""Seaweed"":1}",50.0,50.0,8.333333333333334,6.666666666666667,3.72677996249965,9.428090415820634,1.0,1.0,-1.666666666666667,5.701310453320984,0.0,0.0,"{""FishSmall"":3,""FishBig"":0,""CanSmall"":0,""CanBig"":0,""Seaweed"":0}","{""FishSmall"":3,""FishBig"":0,""CanSmall"":0,""CanBig"":0,""Seaweed"":0}",1.0,2440.19999999702,0.9230769230769231,2.0,2.0,2.0,2.0,2.0,2.0,1.0,2.0,2.0,2.0,1.0,2.0,2.0,100.0,16,0.9666666666666667
6729128.0,48,Male,1.0,Adults,4.0,0.0,trial_17,,,,,2282.0999999940395,,,"{""FishSmall"":6,""FishBig"":0,""CanSmall"":0,""CanBig"":0,""Seaweed"":0}","{""FishSmall"":0,""FishBig"":0,""CanSmall"":1,""CanBig"":2,""Seaweed"":3}",0.0,50.0,10.0,-8.333333333333334,0.0,8.975274678557506,0.0,3.0,-18.333333333333336,8.975274678557506,3.0,50.0,"{""FishSmall"":3,""FishBig"":0,""CanSmall"":0,""CanBig"":0,""Seaweed"":0}","{""FishSmall"":2,""FishBig"":0,""CanSmall"":0,""CanBig"":1,""Seaweed"":0}",1.0,2440.19999999702,0.9230769230769231,2.0,2.0,2.0,2.0,2.0,2.0,1.0,2.0,2.0,2.0,1.0,2.0,2.0,100.0,17,0.9666666666666667
6729128.0,48,Male,1.0,Adults,4.0,0.0,trial_18,,0.0,1.0,,1347.199999988079,960.8000000119208,15307.09999999404,"{""FishSmall"":3,""FishBig"":1,""CanSmall"":1,""CanBig"":0,""Seaweed"":1}","{""FishSmall"":2,""FishBig"":0,""CanSmall"":2,""CanBig"":0,""Seaweed"":2}",100.0,50.0,6.666666666666667,0.0,9.428090415820634,8.16496580927726,1.0,2.0,-6.666666666666667,-1.2631246065433732,1.0,-50.0,"{""FishSmall"":2,""FishBig"":1,""CanSmall"":0,""CanBig"":0,""Seaweed"":0}","{""FishSmall"":2,""FishBig"":0,""CanSmall"":1,""CanBig"":0,""Seaweed"":0}",1.0,2440.19999999702,0.9230769230769231,2.0,2.0,2.0,2.0,2.0,2.0,1.0,2.0,2.0,2.0,1.0,2.0,2.0,100.0,18,0.9666666666666667
6729128.0,48,Male,1.0,Adults,4.0,0.0,trial_19,,0.0,,,3415.0999999940395,2491.199999988079,,"{""FishSmall"":3,""FishBig"":0,""CanSmall"":2,""CanBig"":0,""Seaweed"":1}","{""FishSmall"":2,""FishBig"":0,""CanSmall"":3,""CanBig"":0,""Seaweed"":1}",100.0,0.0,1.6666666666666667,-1.6666666666666667,8.975274678557506,8.975274678557506,1.0,1.0,-3.3333333333333335,0.0,0.0,-100.0,"{""FishSmall"":1,""FishBig"":1,""CanSmall"":1,""CanBig"":0,""Seaweed"":0}","{""FishSmall"":1,""FishBig"":0,""CanSmall"":2,""CanBig"":0,""Seaweed"":0}",1.0,2440.19999999702,0.9230769230769231,2.0,2.0,2.0,2.0,2.0,2.0,1.0,2.0,2.0,2.0,1.0,2.0,2.0,100.0,19,0.9666666666666667
6729128.0,48,Male,1.0,Adults,4.0,1.0,trial_20,,,,,3780.0,,,"{""FishSmall"":0,""FishBig"":0,""CanSmall"":1,""CanBig"":2,""Seaweed"":3}","{""FishSmall"":1,""FishBig"":0,""CanSmall"":2,""CanBig"":1,""Seaweed"":2}",50.0,0.0,-8.333333333333334,-5.0,8.975274678557506,9.574271077563381,3.0,2.0,3.333333333333334,0.5989963990058751,-1.0,-50.0,"{""FishSmall"":0,""FishBig"":2,""CanSmall"":1,""CanBig"":0,""Seaweed"":0}","{""FishSmall"":1,""FishBig"":1,""CanSmall"":0,""CanBig"":1,""Seaweed"":0}",1.0,2440.19999999702,0.9230769230769231,2.0,2.0,2.0,2.0,2.0,2.0,1.0,2.0,2.0,2.0,1.0,2.0,2.0,100.0,20,0.9666666666666667
6729128.0,48,Male,1.0,Adults,4.0,,catch_2,1.0,,,2557.5,,,,"{""FishSmall"":0,""FishBig"":0,""CanSmall"":3,""CanBig"":3,""Seaweed"":0}","{""FishSmall"":0,""FishBig"":0,""CanSmall"":3,""CanBig"":3,""Seaweed"":0}",0.0,0.0,,,,,,,,,,,"{""FishSmall"":0,""FishBig"":0,""CanSmall"":2,""CanBig"":1,""Seaweed"":0}","{""FishSmall"":0,""FishBig"":0,""CanSmall"":1,""CanBig"":2,""Seaweed"":0}",1.0,2440.19999999702,0.9230769230769231,2.0,2.0,2.0,2.0,2.0,2.0,1.0,2.0,2.0,2.0,1.0,2.0,2.0,100.0,,0.9666666666666667
6729128.0,48,Male,1.0,Adults,4.0,1.0,trial_21,,,1.0,,6803.200000017881,,2825.300000011921,"{""FishSmall"":0,""FishBig"":0,""CanSmall"":3,""CanBig"":1,""Seaweed"":2}","{""FishSmall"":0,""FishBig"":0,""CanSmall"":3,""CanBig"":1,""Seaweed"":2}",50.0,100.0,-8.333333333333334,-8.333333333333334,6.871842709362768,6.871842709362768,2.0,2.0,0.0,0.0,0.0,50.0,"{""FishSmall"":0,""FishBig"":0,""CanSmall"":3,""CanBig"":0,""Seaweed"":0}","{""FishSmall"":0,""FishBig"":0,""CanSmall"":1,""CanBig"":2,""Seaweed"":0}",1.0,2440.19999999702,0.9230769230769231,2.0,2.0,2.0,2.0,2.0,2.0,1.0,2.0,2.0,2.0,1.0,2.0,2.0,100.0,21,0.9666666666666667
6729128.0,48,Male,1.0,Adults,4.0,1.0,trial_22,,,0.0,,4576.199999988079,,3977.400000005961,"{""FishSmall"":0,""FishBig"":0,""CanSmall"":3,""CanBig"":1,""Seaweed"":2}","{""FishSmall"":2,""FishBig"":1,""CanSmall"":1,""CanBig"":0,""Seaweed"":2}",0.0,100.0,-8.333333333333334,5.0,6.871842709362768,9.574271077563381,2.0,2.0,13.333333333333334,2.7024283682006134,0.0,100.0,"{""FishSmall"":0,""FishBig"":1,""CanSmall"":1,""CanBig"":1,""Seaweed"":0}","{""FishSmall"":1,""FishBig"":2,""CanSmall"":0,""CanBig"":0,""Seaweed"":0}",1.0,2440.19999999702,0.9230769230769231,2.0,2.0,2.0,2.0,2.0,2.0,1.0,2.0,2.0,2.0,1.0,2.0,2.0,100.0,22,0.9666666666666667
6729128.0,48,Male,1.0,Adults,4.0,0.0,trial_23,,,,,6306.800000011921,,,"{""FishSmall"":3,""FishBig"":0,""CanSmall"":2,""CanBig"":0,""Seaweed"":1}","{""FishSmall"":2,""FishBig"":0,""CanSmall"":3,""CanBig"":0,""Seaweed"":1}",0.0,0.0,1.6666666666666667,-1.6666666666666667,8.975274678557506,8.975274678557506,1.0,1.0,-3.3333333333333335,0.0,0.0,0.0,"{""FishSmall"":1,""FishBig"":0,""CanSmall"":2,""CanBig"":0,""Seaweed"":0}","{""FishSmall"":0,""FishBig"":0,""CanSmall"":3,""CanBig"":0,""Seaweed"":0}",1.0,2440.19999999702,0.9230769230769231,2.0,2.0,2.0,2.0,2.0,2.0,1.0,2.0,2.0,2.0,1.0,2.0,2.0,100.0,23,0.9666666666666667
6729128.0,48,Male,1.0,Adults,4.0,1.0,trial_24,,1.0,,,9529.69999998808,3454.699999988079,,"{""FishSmall"":0,""FishBig"":0,""CanSmall"":3,""CanBig"":2,""Seaweed"":1}","{""FishSmall"":4,""FishBig"":1,""CanSmall"":0,""CanBig"":0,""Seaweed"":1}",100.0,50.0,-11.666666666666666,10.0,6.871842709362768,5.773502691896258,1.0,1.0,21.666666666666664,-1.0983400174665094,0.0,-50.0,"{""FishSmall"":0,""FishBig"":0,""CanSmall"":2,""CanBig"":1,""Seaweed"":0}","{""FishSmall"":3,""FishBig"":0,""CanSmall"":0,""CanBig"":0,""Seaweed"":0}",1.0,2440.19999999702,0.9230769230769231,2.0,2.0,2.0,2.0,2.0,2.0,1.0,2.0,2.0,2.0,1.0,2.0,2.0,100.0,24,0.9666666666666667
6729128.0,48,Male,1.0,Adults,4.0,1.0,trial_25,,1.0,0.0,,1401.2000000178814,5186.59999999404,2266.699999988079,"{""FishSmall"":0,""FishBig"":0,""CanSmall"":3,""CanBig"":3,""Seaweed"":0}","{""FishSmall"":2,""FishBig"":1,""CanSmall"":0,""CanBig"":0,""Seaweed"":3}",100.0,100.0,-15.0,6.666666666666667,5.0,7.453559924999299,0.0,3.0,21.666666666666668,2.4535599249992988,3.0,0.0,"{""FishSmall"":0,""FishBig"":0,""CanSmall"":1,""CanBig"":2,""Seaweed"":0}","{""FishSmall"":2,""FishBig"":1,""CanSmall"":0,""CanBig"":0,""Seaweed"":0}",1.0,2440.19999999702,0.9230769230769231,2.0,2.0,2.0,2.0,2.0,2.0,1.0,2.0,2.0,2.0,1.0,2.0,2.0,100.0,25,0.9666666666666667
6729128.0,48,Male,1.0,Adults,4.0,0.0,trial_26,,0.0,,,3372.2000000178814,2037.4000000059605,,"{""FishSmall"":1,""FishBig"":3,""CanSmall"":0,""CanBig"":0,""Seaweed"":2}","{""FishSmall"":4,""FishBig"":0,""CanSmall"":1,""CanBig"":0,""Seaweed"":1}",50.0,0.0,11.666666666666666,5.0,8.975274678557506,7.637626158259733,2.0,1.0,-6.666666666666666,-1.3376485202977726,-1.0,-50.0,"{""FishSmall"":0,""FishBig"":2,""CanSmall"":0,""CanBig"":1,""Seaweed"":0}","{""FishSmall"":2,""FishBig"":0,""CanSmall"":1,""CanBig"":0,""Seaweed"":0}",1.0,2440.19999999702,0.9230769230769231,2.0,2.0,2.0,2.0,2.0,2.0,1.0,2.0,2.0,2.0,1.0,2.0,2.0,100.0,26,0.9666666666666667
6729128.0,48,Male,1.0,Adults,4.0,1.0,trial_27,,,1.0,,5038.199999988079,,3353.800000011921,"{""FishSmall"":2,""FishBig"":0,""CanSmall"":4,""CanBig"":0,""Seaweed"":0}","{""FishSmall"":2,""FishBig"":0,""CanSmall"":2,""CanBig"":0,""Seaweed"":2}",0.0,50.0,-3.3333333333333335,0.0,9.428090415820634,8.16496580927726,0.0,2.0,3.3333333333333335,-1.2631246065433732,2.0,50.0,"{""FishSmall"":1,""FishBig"":0,""CanSmall"":2,""CanBig"":0,""Seaweed"":0}","{""FishSmall"":1,""FishBig"":0,""CanSmall"":2,""CanBig"":0,""Seaweed"":0}",1.0,2440.19999999702,0.9230769230769231,2.0,2.0,2.0,2.0,2.0,2.0,1.0,2.0,2.0,2.0,1.0,2.0,2.0,100.0,27,0.9666666666666667
6729128.0,48,Male,1.0,Adults,4.0,1.0,trial_28,,,,,1269.2000000178814,,,"{""FishSmall"":4,""FishBig"":1,""CanSmall"":0,""CanBig"":0,""Seaweed"":1}","{""FishSmall"":2,""FishBig"":4,""CanSmall"":0,""CanBig"":0,""Seaweed"":0}",50.0,50.0,10.0,16.666666666666668,5.773502691896258,4.714045207910316,1.0,0.0,6.666666666666668,-1.059457483985942,-1.0,0.0,"{""FishSmall"":2,""FishBig"":1,""CanSmall"":0,""CanBig"":0,""Seaweed"":0}","{""FishSmall"":2,""FishBig"":1,""CanSmall"":0,""CanBig"":0,""Seaweed"":0}",1.0,2440.19999999702,0.9230769230769231,2.0,2.0,2.0,2.0,2.0,2.0,1.0,2.0,2.0,2.0,1.0,2.0,2.0,100.0,28,0.9666666666666667
6729128.0,48,Male,1.0,Adults,4.0,1.0,trial_29,,,0.0,,877.5,,1345.7999999821186,"{""FishSmall"":1,""FishBig"":0,""CanSmall"":2,""CanBig"":1,""Seaweed"":2}","{""FishSmall"":2,""FishBig"":1,""CanSmall"":0,""CanBig"":0,""Seaweed"":3}",0.0,100.0,-5.0,6.666666666666667,9.574271077563381,7.453559924999299,2.0,3.0,11.666666666666668,-2.1207111525640823,1.0,100.0,"{""FishSmall"":1,""FishBig"":0,""CanSmall"":2,""CanBig"":0,""Seaweed"":0}","{""FishSmall"":2,""FishBig"":1,""CanSmall"":0,""CanBig"":0,""Seaweed"":0}",1.0,2440.19999999702,0.9230769230769231,2.0,2.0,2.0,2.0,2.0,2.0,1.0,2.0,2.0,2.0,1.0,2.0,2.0,100.0,29,0.9666666666666667
6729128.0,48,Male,1.0,Adults,4.0,1.0,trial_30,,,,,1564.0,,,"{""FishSmall"":1,""FishBig"":0,""CanSmall"":3,""CanBig"":0,""Seaweed"":2}","{""FishSmall"":1,""FishBig"":4,""CanSmall"":0,""CanBig"":0,""Seaweed"":1}",0.0,50.0,-3.3333333333333335,15.0,7.453559924999299,7.637626158259733,2.0,1.0,18.333333333333332,0.1840662332604346,-1.0,50.0,"{""FishSmall"":0,""FishBig"":0,""CanSmall"":2,""CanBig"":1,""Seaweed"":0}","{""FishSmall"":1,""FishBig"":2,""CanSmall"":0,""CanBig"":0,""Seaweed"":0}",1.0,2440.19999999702,0.9230769230769231,2.0,2.0,2.0,2.0,2.0,2.0,1.0,2.0,2.0,2.0,1.0,2.0,2.0,100.0,30,0.9666666666666667
6729171.0,49,Male,1.0,Adults,4.0,1.0,trial_1,,1.0,,,3342.800000000745,7017.5,,"{""FishSmall"":1,""FishBig"":0,""CanSmall"":3,""CanBig"":0,""Seaweed"":2}","{""FishSmall"":2,""FishBig"":3,""CanSmall"":0,""CanBig"":0,""Seaweed"":1}",100.0,50.0,-3.3333333333333335,13.333333333333334,7.453559924999299,7.453559924999299,2.0,1.0,16.666666666666668,0.0,-1.0,-50.0,"{""FishSmall"":0,""FishBig"":0,""CanSmall"":3,""CanBig"":0,""Seaweed"":0}","{""FishSmall"":1,""FishBig"":1,""CanSmall"":1,""CanBig"":0,""Seaweed"":0}",1.0,1039.2400000000373,0.9615384615384616,2.0,2.0,2.0,2.0,2.0,2.0,2.0,2.0,2.0,2.0,1.0,2.0,2.0,100.0,1,0.9705882352941176
6729171.0,49,Male,1.0,Adults,4.0,1.0,trial_2,,,,,5169.300000000745,,,"{""FishSmall"":1,""FishBig"":0,""CanSmall"":4,""CanBig"":1,""Seaweed"":0}","{""FishSmall"":1,""FishBig"":1,""CanSmall"":1,""CanBig"":0,""Seaweed"":3}",0.0,50.0,-8.333333333333334,3.3333333333333335,8.975274678557506,9.428090415820634,0.0,3.0,11.666666666666668,0.45281573726312807,3.0,50.0,"{""FishSmall"":0,""FishBig"":0,""CanSmall"":3,""CanBig"":0,""Seaweed"":0}","{""FishSmall"":2,""FishBig"":1,""CanSmall"":0,""CanBig"":0,""Seaweed"":0}",1.0,1039.2400000000373,0.9615384615384616,2.0,2.0,2.0,2.0,2.0,2.0,2.0,2.0,2.0,2.0,1.0,2.0,2.0,100.0,2,0.9705882352941176
6729171.0,49,Male,1.0,Adults,4.0,0.0,trial_3,,0.0,1.0,,4341.199999999255,6547.699999999255,6692.4000000003725,"{""FishSmall"":2,""FishBig"":1,""CanSmall"":1,""CanBig"":0,""Seaweed"":2}","{""FishSmall"":1,""FishBig"":0,""CanSmall"":2,""CanBig"":1,""Seaweed"":2}",100.0,50.0,5.0,-5.0,9.574271077563381,9.574271077563381,2.0,2.0,-10.0,0.0,0.0,-50.0,"{""FishSmall"":0,""FishBig"":1,""CanSmall"":1,""CanBig"":1,""Seaweed"":0}","{""FishSmall"":1,""FishBig"":0,""CanSmall"":2,""CanBig"":0,""Seaweed"":0}",1.0,1039.2400000000373,0.9615384615384616,2.0,2.0,2.0,2.0,2.0,2.0,2.0,2.0,2.0,2.0,1.0,2.0,2.0,100.0,3,0.9705882352941176
6729171.0,49,Male,1.0,Adults,4.0,1.0,trial_4,,,0.0,,5841.0,,6605.9000000003725,"{""FishSmall"":4,""FishBig"":1,""CanSmall"":0,""CanBig"":0,""Seaweed"":1}","{""FishSmall"":1,""FishBig"":3,""CanSmall"":0,""CanBig"":0,""Seaweed"":2}",50.0,100.0,10.0,11.666666666666666,5.773502691896258,8.975274678557506,1.0,2.0,1.666666666666666,3.2017719866612477,1.0,50.0,"{""FishSmall"":2,""FishBig"":0,""CanSmall"":0,""CanBig"":1,""Seaweed"":0}","{""FishSmall"":0,""FishBig"":1,""CanSmall"":2,""CanBig"":0,""Seaweed"":0}",1.0,1039.2400000000373,0.9615384615384616,2.0,2.0,2.0,2.0,2.0,2.0,2.0,2.0,2.0,2.0,1.0,2.0,2.0,100.0,4,0.9705882352941176
6729171.0,49,Male,1.0,Adults,4.0,0.0,trial_5,,0.0,,,5051.9000000003725,24842.20000000112,,"{""FishSmall"":1,""FishBig"":2,""CanSmall"":0,""CanBig"":0,""Seaweed"":3}","{""FishSmall"":2,""FishBig"":1,""CanSmall"":0,""CanBig"":0,""Seaweed"":3}",100.0,50.0,8.333333333333334,6.666666666666667,8.975274678557506,7.453559924999299,3.0,3.0,-1.666666666666667,-1.5217147535582072,0.0,-50.0,"{""FishSmall"":2,""FishBig"":1,""CanSmall"":0,""CanBig"":0,""Seaweed"":0}","{""FishSmall"":1,""FishBig"":1,""CanSmall"":0,""CanBig"":1,""Seaweed"":0}",1.0,1039.2400000000373,0.9615384615384616,2.0,2.0,2.0,2.0,2.0,2.0,2.0,2.0,2.0,2.0,1.0,2.0,2.0,100.0,5,0.9705882352941176
6729171.0,49,Male,1.0,Adults,4.0,1.0,trial_6,,,,,43067.39999999851,,,"{""FishSmall"":0,""FishBig"":0,""CanSmall"":2,""CanBig"":2,""Seaweed"":2}","{""FishSmall"":1,""FishBig"":1,""CanSmall"":1,""CanBig"":0,""Seaweed"":3}",50.0,0.0,-10.0,3.3333333333333335,8.16496580927726,9.428090415820634,2.0,3.0,13.333333333333334,1.2631246065433732,1.0,-50.0,"{""FishSmall"":1,""FishBig"":0,""CanSmall"":2,""CanBig"":0,""Seaweed"":0}","{""FishSmall"":1,""FishBig"":1,""CanSmall"":1,""CanBig"":0,""Seaweed"":0}",1.0,1039.2400000000373,0.9615384615384616,2.0,2.0,2.0,2.0,2.0,2.0,2.0,2.0,2.0,2.0,1.0,2.0,2.0,100.0,6,0.9705882352941176
6729171.0,49,Male,1.0,Adults,4.0,0.0,trial_7,,0.0,,,3335.0,28331.800000000745,,"{""FishSmall"":3,""FishBig"":0,""CanSmall"":1,""CanBig"":0,""Seaweed"":2}","{""FishSmall"":0,""FishBig"":0,""CanSmall"":3,""CanBig"":1,""Seaweed"":2}",100.0,50.0,3.3333333333333335,-8.333333333333334,7.453559924999298,6.871842709362768,2.0,2.0,-11.666666666666668,-0.5817172156365302,0.0,-50.0,"{""FishSmall"":2,""FishBig"":0,""CanSmall"":1,""CanBig"":0,""Seaweed"":0}","{""FishSmall"":0,""FishBig"":0,""CanSmall"":2,""CanBig"":1,""Seaweed"":0}",1.0,1039.2400000000373,0.9615384615384616,2.0,2.0,2.0,2.0,2.0,2.0,2.0,2.0,2.0,2.0,1.0,2.0,2.0,100.0,7,0.9705882352941176
6729171.0,49,Male,1.0,Adults,4.0,0.0,trial_8,,0.0,1.0,,10238.699999999257,5920.89999999851,12699.799999998882,"{""FishSmall"":1,""FishBig"":0,""CanSmall"":2,""CanBig"":0,""Seaweed"":3}","{""FishSmall"":1,""FishBig"":0,""CanSmall"":3,""CanBig"":1,""Seaweed"":1}",50.0,100.0,-1.6666666666666667,-6.666666666666667,6.871842709362768,9.428090415820632,3.0,1.0,-5.0,2.5562477064578646,-2.0,50.0,"{""FishSmall"":2,""FishBig"":1,""CanSmall"":0,""CanBig"":0,""Seaweed"":0}","{""FishSmall"":0,""FishBig"":0,""CanSmall"":2,""CanBig"":1,""Seaweed"":0}",1.0,1039.2400000000373,0.9615384615384616,2.0,2.0,2.0,2.0,2.0,2.0,2.0,2.0,2.0,2.0,1.0,2.0,2.0,100.0,8,0.9705882352941176
6729171.0,49,Male,1.0,Adults,4.0,1.0,trial_9,,1.0,,,4338.199999999255,21084.19999999925,,"{""FishSmall"":0,""FishBig"":0,""CanSmall"":2,""CanBig"":1,""Seaweed"":3}","{""FishSmall"":2,""FishBig"":1,""CanSmall"":1,""CanBig"":0,""Seaweed"":2}",100.0,50.0,-6.666666666666667,5.0,7.453559924999299,9.574271077563381,3.0,2.0,11.666666666666668,2.1207111525640823,-1.0,-50.0,"{""FishSmall"":0,""FishBig"":1,""CanSmall"":1,""CanBig"":1,""Seaweed"":0}","{""FishSmall"":2,""FishBig"":1,""CanSmall"":0,""CanBig"":0,""Seaweed"":0}",1.0,1039.2400000000373,0.9615384615384616,2.0,2.0,2.0,2.0,2.0,2.0,2.0,2.0,2.0,2.0,1.0,2.0,2.0,100.0,9,0.9705882352941176
6729171.0,49,Male,1.0,Adults,4.0,1.0,trial_10,,,,,8866.299999998882,,,"{""FishSmall"":0,""FishBig"":0,""CanSmall"":3,""CanBig"":1,""Seaweed"":2}","{""FishSmall"":2,""FishBig"":1,""CanSmall"":1,""CanBig"":0,""Seaweed"":2}",0.0,0.0,-8.333333333333334,5.0,6.871842709362768,9.574271077563381,2.0,2.0,13.333333333333334,2.7024283682006134,0.0,0.0,"{""FishSmall"":0,""FishBig"":0,""CanSmall"":2,""CanBig"":1,""Seaweed"":0}","{""FishSmall"":2,""FishBig"":1,""CanSmall"":0,""CanBig"":0,""Seaweed"":0}",1.0,1039.2400000000373,0.9615384615384616,2.0,2.0,2.0,2.0,2.0,2.0,2.0,2.0,2.0,2.0,1.0,2.0,2.0,100.0,10,0.9705882352941176
6729171.0,49,Male,1.0,Adults,4.0,,catch_1,0.0,,,5694.5,,,,"{""FishSmall"":4,""FishBig"":2,""CanSmall"":0,""CanBig"":0,""Seaweed"":0}","{""FishSmall"":4,""FishBig"":2,""CanSmall"":0,""CanBig"":0,""Seaweed"":0}",0.0,0.0,,,,,,,,,,,"{""FishSmall"":1,""FishBig"":2,""CanSmall"":0,""CanBig"":0,""Seaweed"":0}","{""FishSmall"":2,""FishBig"":1,""CanSmall"":0,""CanBig"":0,""Seaweed"":0}",1.0,1039.2400000000373,0.9615384615384616,2.0,2.0,2.0,2.0,2.0,2.0,2.0,2.0,2.0,2.0,1.0,2.0,2.0,100.0,,0.9705882352941176
6729171.0,49,Male,1.0,Adults,4.0,0.0,trial_11,,,0.0,,8528.0,,6652.599999999628,"{""FishSmall"":3,""FishBig"":1,""CanSmall"":0,""CanBig"":0,""Seaweed"":2}","{""FishSmall"":2,""FishBig"":1,""CanSmall"":1,""CanBig"":0,""Seaweed"":2}",0.0,100.0,8.333333333333334,5.0,6.871842709362768,9.574271077563381,2.0,2.0,-3.333333333333334,2.7024283682006134,0.0,100.0,"{""FishSmall"":1,""FishBig"":1,""CanSmall"":0,""CanBig"":1,""Seaweed"":0}","{""FishSmall"":1,""FishBig"":1,""CanSmall"":1,""CanBig"":0,""Seaweed"":0}",1.0,1039.2400000000373,0.9615384615384616,2.0,2.0,2.0,2.0,2.0,2.0,2.0,2.0,2.0,2.0,1.0,2.0,2.0,100.0,11,0.9705882352941176
6729171.0,49,Male,1.0,Adults,4.0,0.0,trial_12,,1.0,,,25740.0,5867.799999998882,,"{""FishSmall"":0,""FishBig"":0,""CanSmall"":2,""CanBig"":2,""Seaweed"":2}","{""FishSmall"":0,""FishBig"":0,""CanSmall"":2,""CanBig"":2,""Seaweed"":2}",50.0,0.0,-10.0,-10.0,8.16496580927726,8.16496580927726,2.0,2.0,0.0,0.0,0.0,-50.0,"{""FishSmall"":0,""FishBig"":0,""CanSmall"":2,""CanBig"":1,""Seaweed"":0}","{""FishSmall"":1,""FishBig"":0,""CanSmall"":1,""CanBig"":1,""Seaweed"":0}",1.0,1039.2400000000373,0.9615384615384616,2.0,2.0,2.0,2.0,2.0,2.0,2.0,2.0,2.0,2.0,1.0,2.0,2.0,100.0,12,0.9705882352941176
6729171.0,49,Male,1.0,Adults,4.0,1.0,trial_13,,0.0,,,6808.0,10694.800000000743,,"{""FishSmall"":1,""FishBig"":1,""CanSmall"":1,""CanBig"":0,""Seaweed"":3}","{""FishSmall"":1,""FishBig"":2,""CanSmall"":0,""CanBig"":0,""Seaweed"":3}",50.0,0.0,3.3333333333333335,8.333333333333334,9.428090415820634,8.975274678557506,3.0,3.0,5.0,-0.45281573726312807,0.0,-50.0,"{""FishSmall"":2,""FishBig"":1,""CanSmall"":0,""CanBig"":0,""Seaweed"":0}","{""FishSmall"":2,""FishBig"":1,""CanSmall"":0,""CanBig"":0,""Seaweed"":0}",1.0,1039.2400000000373,0.9615384615384616,2.0,2.0,2.0,2.0,2.0,2.0,2.0,2.0,2.0,2.0,1.0,2.0,2.0,100.0,13,0.9705882352941176
6729171.0,49,Male,1.0,Adults,4.0,0.0,trial_14,,0.0,0.0,,9383.199999999257,2683.0,12851.199999999257,"{""FishSmall"":1,""FishBig"":3,""CanSmall"":0,""CanBig"":0,""Seaweed"":2}","{""FishSmall"":3,""FishBig"":0,""CanSmall"":2,""CanBig"":0,""Seaweed"":1}",50.0,100.0,11.666666666666666,1.6666666666666667,8.975274678557506,8.975274678557506,2.0,1.0,-10.0,0.0,-1.0,50.0,"{""FishSmall"":1,""FishBig"":2,""CanSmall"":0,""CanBig"":0,""Seaweed"":0}","{""FishSmall"":2,""FishBig"":0,""CanSmall"":1,""CanBig"":0,""Seaweed"":0}",1.0,1039.2400000000373,0.9615384615384616,2.0,2.0,2.0,2.0,2.0,2.0,2.0,2.0,2.0,2.0,1.0,2.0,2.0,100.0,14,0.9705882352941176
6729171.0,49,Male,1.0,Adults,4.0,0.0,trial_15,,,1.0,,3460.9000000003725,,20612.599999999627,"{""FishSmall"":1,""FishBig"":3,""CanSmall"":0,""CanBig"":0,""Seaweed"":2}","{""FishSmall"":1,""FishBig"":0,""CanSmall"":3,""CanBig"":1,""Seaweed"":1}",50.0,100.0,11.666666666666666,-6.666666666666667,8.975274678557506,9.428090415820632,2.0,1.0,-18.333333333333332,0.4528157372631263,-1.0,50.0,"{""FishSmall"":0,""FishBig"":3,""CanSmall"":0,""CanBig"":0,""Seaweed"":0}","{""FishSmall"":0,""FishBig"":0,""CanSmall"":2,""CanBig"":1,""Seaweed"":0}",1.0,1039.2400000000373,0.9615384615384616,2.0,2.0,2.0,2.0,2.0,2.0,2.0,2.0,2.0,2.0,1.0,2.0,2.0,100.0,15,0.9705882352941176
6729171.0,49,Male,1.0,Adults,4.0,1.0,trial_16,,1.0,1.0,,2458.60000000149,3331.300000000745,4858.9000000003725,"{""FishSmall"":0,""FishBig"":0,""CanSmall"":2,""CanBig"":3,""Seaweed"":1}","{""FishSmall"":0,""FishBig"":0,""CanSmall"":2,""CanBig"":1,""Seaweed"":3}",100.0,50.0,-13.333333333333334,-6.666666666666667,7.453559924999299,7.453559924999299,1.0,3.0,6.666666666666667,0.0,2.0,-50.0,"{""FishSmall"":0,""FishBig"":0,""CanSmall"":1,""CanBig"":2,""Seaweed"":0}","{""FishSmall"":0,""FishBig"":0,""CanSmall"":2,""CanBig"":1,""Seaweed"":0}",1.0,1039.2400000000373,0.9615384615384616,2.0,2.0,2.0,2.0,2.0,2.0,2.0,2.0,2.0,2.0,1.0,2.0,2.0,100.0,16,0.9705882352941176
6729171.0,49,Male,1.0,Adults,4.0,0.0,trial_17,,,0.0,,3929.0,,3717.800000000745,"{""FishSmall"":2,""FishBig"":3,""CanSmall"":0,""CanBig"":0,""Seaweed"":1}","{""FishSmall"":3,""FishBig"":1,""CanSmall"":0,""CanBig"":0,""Seaweed"":2}",0.0,50.0,13.333333333333334,8.333333333333334,7.453559924999299,6.871842709362768,1.0,2.0,-5.0,-0.5817172156365311,1.0,50.0,"{""FishSmall"":1,""FishBig"":1,""CanSmall"":1,""CanBig"":0,""Seaweed"":0}","{""FishSmall"":2,""FishBig"":0,""CanSmall"":1,""CanBig"":0,""Seaweed"":0}",1.0,1039.2400000000373,0.9615384615384616,2.0,2.0,2.0,2.0,2.0,2.0,2.0,2.0,2.0,2.0,1.0,2.0,2.0,100.0,17,0.9705882352941176
6729171.0,49,Male,1.0,Adults,4.0,1.0,trial_18,,,0.0,,4728.799999998882,,944.3000000007452,"{""FishSmall"":2,""FishBig"":1,""CanSmall"":1,""CanBig"":0,""Seaweed"":2}","{""FishSmall"":4,""FishBig"":0,""CanSmall"":1,""CanBig"":0,""Seaweed"":1}",50.0,100.0,5.0,5.0,9.574271077563381,7.637626158259733,2.0,1.0,0.0,-1.9366449193036477,-1.0,50.0,"{""FishSmall"":2,""FishBig"":0,""CanSmall"":1,""CanBig"":0,""Seaweed"":0}","{""FishSmall"":2,""FishBig"":1,""CanSmall"":0,""CanBig"":0,""Seaweed"":0}",1.0,1039.2400000000373,0.9615384615384616,2.0,2.0,2.0,2.0,2.0,2.0,2.0,2.0,2.0,2.0,1.0,2.0,2.0,100.0,18,0.9705882352941176
6729171.0,49,Male,1.0,Adults,4.0,0.0,trial_19,,0.0,,,6308.300000000745,8305.0,,"{""FishSmall"":6,""FishBig"":0,""CanSmall"":0,""CanBig"":0,""Seaweed"":0}","{""FishSmall"":0,""FishBig"":0,""CanSmall"":1,""CanBig"":2,""Seaweed"":3}",50.0,50.0,10.0,-8.333333333333334,0.0,8.975274678557506,0.0,3.0,-18.333333333333336,8.975274678557506,3.0,0.0,"{""FishSmall"":3,""FishBig"":0,""CanSmall"":0,""CanBig"":0,""Seaweed"":0}","{""FishSmall"":0,""FishBig"":0,""CanSmall"":2,""CanBig"":1,""Seaweed"":0}",1.0,1039.2400000000373,0.9615384615384616,2.0,2.0,2.0,2.0,2.0,2.0,2.0,2.0,2.0,2.0,1.0,2.0,2.0,100.0,19,0.9705882352941176
6729171.0,49,Male,1.0,Adults,4.0,0.0,trial_20,,0.0,1.0,,11830.5,2576.10000000149,2956.9000000003725,"{""FishSmall"":1,""FishBig"":0,""CanSmall"":1,""CanBig"":1,""Seaweed"":3}","{""FishSmall"":0,""FishBig"":0,""CanSmall"":2,""CanBig"":1,""Seaweed"":3}",100.0,100.0,-3.3333333333333335,-6.666666666666667,9.428090415820634,7.453559924999299,3.0,3.0,-3.3333333333333335,-1.9745304908213352,0.0,0.0,"{""FishSmall"":1,""FishBig"":1,""CanSmall"":0,""CanBig"":1,""Seaweed"":0}","{""FishSmall"":1,""FishBig"":1,""CanSmall"":0,""CanBig"":1,""Seaweed"":0}",1.0,1039.2400000000373,0.9615384615384616,2.0,2.0,2.0,2.0,2.0,2.0,2.0,2.0,2.0,2.0,1.0,2.0,2.0,100.0,20,0.9705882352941176
6729171.0,49,Male,1.0,Adults,4.0,,catch_2,1.0,,,5473.0,,,,"{""FishSmall"":0,""FishBig"":0,""CanSmall"":3,""CanBig"":3,""Seaweed"":0}","{""FishSmall"":0,""FishBig"":0,""CanSmall"":3,""CanBig"":3,""Seaweed"":0}",0.0,0.0,,,,,,,,,,,"{""FishSmall"":0,""FishBig"":0,""CanSmall"":1,""CanBig"":2,""Seaweed"":0}","{""FishSmall"":0,""FishBig"":0,""CanSmall"":1,""CanBig"":2,""Seaweed"":0}",1.0,1039.2400000000373,0.9615384615384616,2.0,2.0,2.0,2.0,2.0,2.0,2.0,2.0,2.0,2.0,1.0,2.0,2.0,100.0,,0.9705882352941176
6729171.0,49,Male,1.0,Adults,4.0,0.0,trial_21,,1.0,,,1026.10000000149,12006.700000001118,,"{""FishSmall"":1,""FishBig"":0,""CanSmall"":2,""CanBig"":1,""Seaweed"":2}","{""FishSmall"":0,""FishBig"":0,""CanSmall"":3,""CanBig"":3,""Seaweed"":0}",100.0,50.0,-5.0,-15.0,9.574271077563381,5.0,2.0,0.0,-10.0,-4.574271077563381,-2.0,-50.0,"{""FishSmall"":0,""FishBig"":0,""CanSmall"":1,""CanBig"":2,""Seaweed"":0}","{""FishSmall"":0,""FishBig"":0,""CanSmall"":2,""CanBig"":1,""Seaweed"":0}",1.0,1039.2400000000373,0.9615384615384616,2.0,2.0,2.0,2.0,2.0,2.0,2.0,2.0,2.0,2.0,1.0,2.0,2.0,100.0,21,0.9705882352941176
6729171.0,49,Male,1.0,Adults,4.0,1.0,trial_22,,0.0,0.0,,3333.5,3360.5,1733.0999999996277,"{""FishSmall"":2,""FishBig"":1,""CanSmall"":0,""CanBig"":0,""Seaweed"":3}","{""FishSmall"":3,""FishBig"":1,""CanSmall"":1,""CanBig"":0,""Seaweed"":1}",100.0,100.0,6.666666666666667,6.666666666666667,7.453559924999299,9.428090415820634,3.0,1.0,0.0,1.9745304908213352,-2.0,0.0,"{""FishSmall"":1,""FishBig"":2,""CanSmall"":0,""CanBig"":0,""Seaweed"":0}","{""FishSmall"":2,""FishBig"":0,""CanSmall"":1,""CanBig"":0,""Seaweed"":0}",1.0,1039.2400000000373,0.9615384615384616,2.0,2.0,2.0,2.0,2.0,2.0,2.0,2.0,2.0,2.0,1.0,2.0,2.0,100.0,22,0.9705882352941176
6729171.0,49,Male,1.0,Adults,4.0,1.0,trial_23,,,,,3284.699999999255,,,"{""FishSmall"":2,""FishBig"":0,""CanSmall"":3,""CanBig"":0,""Seaweed"":1}","{""FishSmall"":0,""FishBig"":1,""CanSmall"":0,""CanBig"":1,""Seaweed"":4}",50.0,50.0,-1.6666666666666667,0.0,8.975274678557506,11.547005383792516,1.0,4.0,1.6666666666666667,2.5717307052350105,3.0,0.0,"{""FishSmall"":1,""FishBig"":0,""CanSmall"":2,""CanBig"":0,""Seaweed"":0}","{""FishSmall"":1,""FishBig"":2,""CanSmall"":0,""CanBig"":0,""Seaweed"":0}",1.0,1039.2400000000373,0.9615384615384616,2.0,2.0,2.0,2.0,2.0,2.0,2.0,2.0,2.0,2.0,1.0,2.0,2.0,100.0,23,0.9705882352941176
6729171.0,49,Male,1.0,Adults,4.0,0.0,trial_24,,0.0,1.0,,3691.0,3196.5999999996275,4405.300000000745,"{""FishSmall"":3,""FishBig"":1,""CanSmall"":0,""CanBig"":0,""Seaweed"":2}","{""FishSmall"":0,""FishBig"":0,""CanSmall"":4,""CanBig"":2,""Seaweed"":0}",100.0,50.0,8.333333333333334,-13.333333333333334,6.871842709362768,4.714045207910316,2.0,0.0,-21.666666666666668,-2.1577975014524515,-2.0,-50.0,"{""FishSmall"":1,""FishBig"":1,""CanSmall"":0,""CanBig"":1,""Seaweed"":0}","{""FishSmall"":0,""FishBig"":0,""CanSmall"":3,""CanBig"":0,""Seaweed"":0}",1.0,1039.2400000000373,0.9615384615384616,2.0,2.0,2.0,2.0,2.0,2.0,2.0,2.0,2.0,2.0,1.0,2.0,2.0,100.0,24,0.9705882352941176
6729171.0,49,Male,1.0,Adults,4.0,1.0,trial_25,,,1.0,,4693.599999999628,,3678.7000000011176,"{""FishSmall"":3,""FishBig"":3,""CanSmall"":0,""CanBig"":0,""Seaweed"":0}","{""FishSmall"":0,""FishBig"":0,""CanSmall"":1,""CanBig"":3,""Seaweed"":2}",0.0,100.0,15.0,-11.666666666666666,5.0,8.975274678557506,0.0,2.0,-26.666666666666664,3.975274678557506,2.0,100.0,"{""FishSmall"":1,""FishBig"":2,""CanSmall"":0,""CanBig"":0,""Seaweed"":0}","{""FishSmall"":0,""FishBig"":0,""CanSmall"":0,""CanBig"":3,""Seaweed"":0}",1.0,1039.2400000000373,0.9615384615384616,2.0,2.0,2.0,2.0,2.0,2.0,2.0,2.0,2.0,2.0,1.0,2.0,2.0,100.0,25,0.9705882352941176
6729171.0,49,Male,1.0,Adults,4.0,1.0,trial_26,,1.0,,,3970.199999999255,3524.2000000011176,,"{""FishSmall"":0,""FishBig"":0,""CanSmall"":2,""CanBig"":3,""Seaweed"":1}","{""FishSmall"":2,""FishBig"":1,""CanSmall"":1,""CanBig"":0,""Seaweed"":2}",100.0,0.0,-13.333333333333334,5.0,7.453559924999299,9.574271077563381,1.0,2.0,18.333333333333336,2.1207111525640823,1.0,-100.0,"{""FishSmall"":0,""FishBig"":0,""CanSmall"":1,""CanBig"":2,""Seaweed"":0}","{""FishSmall"":2,""FishBig"":0,""CanSmall"":1,""CanBig"":0,""Seaweed"":0}",1.0,1039.2400000000373,0.9615384615384616,2.0,2.0,2.0,2.0,2.0,2.0,2.0,2.0,2.0,2.0,1.0,2.0,2.0,100.0,26,0.9705882352941176
6729171.0,49,Male,1.0,Adults,4.0,1.0,trial_27,,0.0,1.0,,3421.199999999255,3799.2000000011176,3319.4000000003725,"{""FishSmall"":3,""FishBig"":1,""CanSmall"":0,""CanBig"":0,""Seaweed"":2}","{""FishSmall"":0,""FishBig"":0,""CanSmall"":1,""CanBig"":2,""Seaweed"":3}",100.0,100.0,8.333333333333334,-8.333333333333334,6.871842709362768,8.975274678557506,2.0,3.0,-16.666666666666668,2.1034319691947383,1.0,0.0,"{""FishSmall"":3,""FishBig"":0,""CanSmall"":0,""CanBig"":0,""Seaweed"":0}","{""FishSmall"":0,""FishBig"":0,""CanSmall"":2,""CanBig"":1,""Seaweed"":0}",1.0,1039.2400000000373,0.9615384615384616,2.0,2.0,2.0,2.0,2.0,2.0,2.0,2.0,2.0,2.0,1.0,2.0,2.0,100.0,27,0.9705882352941176
6729171.0,49,Male,1.0,Adults,4.0,0.0,trial_28,,0.0,,,3759.900000000373,3751.599999999628,,"{""FishSmall"":2,""FishBig"":0,""CanSmall"":1,""CanBig"":0,""Seaweed"":3}","{""FishSmall"":1,""FishBig"":0,""CanSmall"":3,""CanBig"":0,""Seaweed"":2}",100.0,50.0,1.6666666666666667,-3.3333333333333335,6.871842709362768,7.453559924999299,3.0,2.0,-5.0,0.5817172156365311,-1.0,-50.0,"{""FishSmall"":2,""FishBig"":1,""CanSmall"":0,""CanBig"":0,""Seaweed"":0}","{""FishSmall"":1,""FishBig"":0,""CanSmall"":2,""CanBig"":0,""Seaweed"":0}",1.0,1039.2400000000373,0.9615384615384616,2.0,2.0,2.0,2.0,2.0,2.0,2.0,2.0,2.0,2.0,1.0,2.0,2.0,100.0,28,0.9705882352941176
6729171.0,49,Male,1.0,Adults,4.0,0.0,trial_29,,1.0,,,15419.599999999627,3129.0,,"{""FishSmall"":0,""FishBig"":0,""CanSmall"":2,""CanBig"":2,""Seaweed"":2}","{""FishSmall"":1,""FishBig"":0,""CanSmall"":2,""CanBig"":1,""Seaweed"":2}",100.0,50.0,-10.0,-5.0,8.16496580927726,9.574271077563381,2.0,2.0,5.0,1.4093052682861202,0.0,-50.0,"{""FishSmall"":0,""FishBig"":0,""CanSmall"":2,""CanBig"":1,""Seaweed"":0}","{""FishSmall"":0,""FishBig"":0,""CanSmall"":3,""CanBig"":0,""Seaweed"":0}",1.0,1039.2400000000373,0.9615384615384616,2.0,2.0,2.0,2.0,2.0,2.0,2.0,2.0,2.0,2.0,1.0,2.0,2.0,100.0,29,0.9705882352941176
6729171.0,49,Male,1.0,Adults,4.0,1.0,trial_30,,,0.0,,25447.800000000745,,3062.7000000011176,"{""FishSmall"":0,""FishBig"":0,""CanSmall"":1,""CanBig"":3,""Seaweed"":2}","{""FishSmall"":1,""FishBig"":2,""CanSmall"":0,""CanBig"":0,""Seaweed"":3}",0.0,100.0,-11.666666666666666,8.333333333333334,8.975274678557506,8.975274678557506,2.0,3.0,20.0,0.0,1.0,100.0,"{""FishSmall"":0,""FishBig"":0,""CanSmall"":1,""CanBig"":2,""Seaweed"":0}","{""FishSmall"":0,""FishBig"":2,""CanSmall"":1,""CanBig"":0,""Seaweed"":0}",1.0,1039.2400000000373,0.9615384615384616,2.0,2.0,2.0,2.0,2.0,2.0,2.0,2.0,2.0,2.0,1.0,2.0,2.0,100.0,30,0.9705882352941176
