subject_ID,age_in_years,gender,gender_coded,age_group,age_group_coded,info_choice,condition,catch_trials,fishing_choiceL,fishing_choiceR,RT_catch,RT_info_choice,RT_fishingL,RT_fishingR,items_countL,items_countR,agency_probL,agency_probR,EV_L,EV_R,EV_flashL,EV_flashR,SD_L,SD_R,uncertainty_level_L,uncertainty_level_R,delta_EV,delta_SD,delta_uncertainty_level,delta_agency,items_count_flashL,items_count_flashR,EV_at_fishingL,EV_at_fishingR,wob,avg_wob_RT,percent_comprehension,q1,q2,q3,q4,q5,q6,q7,q8,q9,q10,q11,q12,q13,catch_trials_score,trial_number,prop_correct_fishing,fishing_rewardL,fishing_rewardR
3714644,25,Male,1,Adults,4,0,trial_1,,,,,2236.355,,,"{""FishSmall"":4,""FishBig"":1,""CanSmall"":0,""CanBig"":0,""Seaweed"":1}","{""FishSmall"":3,""FishBig"":1,""CanSmall"":1,""CanBig"":0,""Seaweed"":1}",50,0,10,6.666666667,13.33333333,-6.666666667,5.773502692,9.428090416,1,1,-3.333333333,3.654587724,0,-50,"{""FishSmall"":2,""FishBig"":1,""CanSmall"":0,""CanBig"":0,""Seaweed"":0}","{""FishSmall"":1,""FishBig"":0,""CanSmall"":1,""CanBig"":1,""Seaweed"":0}",13.33333333,6.666666667,1,630.969,0.961538462,2,2,2,2,2,2,2,2,2,2,1,2,2,100,1,0.90625,20,0
3714644,25,Male,1,Adults,4,0,trial_2,,0,0,,976.0149999,1181.015,5490.79,"{""FishSmall"":1,""FishBig"":2,""CanSmall"":0,""CanBig"":0,""Seaweed"":3}","{""FishSmall"":4,""FishBig"":0,""CanSmall"":1,""CanBig"":0,""Seaweed"":1}",100,100,8.333333333,5,6.666666667,3.333333333,8.975274679,7.637626158,3,1,-3.333333333,-1.33764852,-2,0,"{""FishSmall"":0,""FishBig"":2,""CanSmall"":0,""CanBig"":1,""Seaweed"":0}","{""FishSmall"":2,""FishBig"":0,""CanSmall"":1,""CanBig"":0,""Seaweed"":0}",6.666666667,5,1,630.969,0.961538462,2,2,2,2,2,2,2,2,2,2,1,2,2,100,2,0.90625,20,10
3714644,25,Male,1,Adults,4,0,trial_3,,,1,,6500.23,,938.1149999,"{""FishSmall"":2,""FishBig"":1,""CanSmall"":0,""CanBig"":0,""Seaweed"":3}","{""FishSmall"":0,""FishBig"":0,""CanSmall"":3,""CanBig"":1,""Seaweed"":2}",0,100,6.666666667,-8.333333333,16.66666667,0,7.453559925,6.871842709,3,2,-15,-0.581717216,-1,100,"{""FishSmall"":1,""FishBig"":2,""CanSmall"":0,""CanBig"":0,""Seaweed"":0}","{""FishSmall"":0,""FishBig"":1,""CanSmall"":2,""CanBig"":0,""Seaweed"":0}",16.66666667,-8.333333333,1,630.969,0.961538462,2,2,2,2,2,2,2,2,2,2,1,2,2,100,3,0.90625,0,0
3714644,25,Male,1,Adults,4,0,trial_4,,,0,,1116.945,,1442.56,"{""FishSmall"":4,""FishBig"":2,""CanSmall"":0,""CanBig"":0,""Seaweed"":0}","{""FishSmall"":4,""FishBig"":1,""CanSmall"":1,""CanBig"":0,""Seaweed"":0}",0,100,13.33333333,8.333333333,10,6.666666667,4.714045208,8.975274679,0,0,-5,4.261229471,0,100,"{""FishSmall"":3,""FishBig"":0,""CanSmall"":0,""CanBig"":0,""Seaweed"":0}","{""FishSmall"":1,""FishBig"":1,""CanSmall"":1,""CanBig"":0,""Seaweed"":0}",10,8.333333333,1,630.969,0.961538462,2,2,2,2,2,2,2,2,2,2,1,2,2,100,4,0.90625,0,20
3714644,25,Male,1,Adults,4,1,trial_5,,,0,,2015.43,,1356.085,"{""FishSmall"":0,""FishBig"":0,""CanSmall"":4,""CanBig"":0,""Seaweed"":2}","{""FishSmall"":1,""FishBig"":2,""CanSmall"":0,""CanBig"":0,""Seaweed"":3}",0,100,-6.666666667,8.333333333,6.666666667,3.333333333,4.714045208,8.975274679,2,3,15,4.261229471,1,100,"{""FishSmall"":1,""FishBig"":1,""CanSmall"":1,""CanBig"":0,""Seaweed"":0}","{""FishSmall"":2,""FishBig"":0,""CanSmall"":1,""CanBig"":0,""Seaweed"":0}",-6.666666667,3.333333333,1,630.969,0.961538462,2,2,2,2,2,2,2,2,2,2,1,2,2,100,5,0.90625,0,-10
3714644,25,Male,1,Adults,4,0,trial_6,,1,,,2934.785,1151.825,,"{""FishSmall"":0,""FishBig"":0,""CanSmall"":4,""CanBig"":1,""Seaweed"":1}","{""FishSmall"":0,""FishBig"":0,""CanSmall"":3,""CanBig"":2,""Seaweed"":1}",100,0,-10,-11.66666667,-13.33333333,-13.33333333,5.773502692,6.871842709,1,1,-1.666666667,1.098340017,0,-100,"{""FishSmall"":0,""FishBig"":0,""CanSmall"":2,""CanBig"":1,""Seaweed"":0}","{""FishSmall"":0,""FishBig"":0,""CanSmall"":2,""CanBig"":1,""Seaweed"":0}",-13.33333333,-11.66666667,1,630.969,0.961538462,2,2,2,2,2,2,2,2,2,2,1,2,2,100,6,0.90625,0,0
3714644,25,Male,1,Adults,4,0,trial_7,,0,0,,1049.31,1477.115,3179.535,"{""FishSmall"":1,""FishBig"":2,""CanSmall"":0,""CanBig"":0,""Seaweed"":3}","{""FishSmall"":1,""FishBig"":3,""CanSmall"":0,""CanBig"":0,""Seaweed"":2}",100,50,8.333333333,11.66666667,6.666666667,13.33333333,8.975274679,8.975274679,3,2,3.333333333,0,-1,-50,"{""FishSmall"":1,""FishBig"":1,""CanSmall"":1,""CanBig"":0,""Seaweed"":0}","{""FishSmall"":2,""FishBig"":1,""CanSmall"":0,""CanBig"":0,""Seaweed"":0}",6.666666667,11.66666667,1,630.969,0.961538462,2,2,2,2,2,2,2,2,2,2,1,2,2,100,7,0.90625,-10,10
3714644,25,Male,1,Adults,4,0,trial_8,,0,1,,1222.31,746.425,1317.555,"{""FishSmall"":3,""FishBig"":2,""CanSmall"":0,""CanBig"":0,""Seaweed"":1}","{""FishSmall"":1,""FishBig"":0,""CanSmall"":3,""CanBig"":1,""Seaweed"":1}",100,100,11.66666667,-6.666666667,13.33333333,-16.66666667,6.871842709,9.428090416,1,1,-18.33333333,2.556247706,0,0,"{""FishSmall"":2,""FishBig"":1,""CanSmall"":0,""CanBig"":0,""Seaweed"":0}","{""FishSmall"":0,""FishBig"":0,""CanSmall"":1,""CanBig"":2,""Seaweed"":0}",13.33333333,-6.666666667,1,630.969,0.961538462,2,2,2,2,2,2,2,2,2,2,1,2,2,100,8,0.90625,10,0
3714644,25,Male,1,Adults,4,0,trial_9,,,,,12977.96,,,"{""FishSmall"":1,""FishBig"":2,""CanSmall"":0,""CanBig"":0,""Seaweed"":3}","{""FishSmall"":4,""FishBig"":1,""CanSmall"":0,""CanBig"":0,""Seaweed"":1}",50,0,8.333333333,10,-6.666666667,13.33333333,8.975274679,5.773502692,3,1,1.666666667,-3.201771987,-2,-50,"{""FishSmall"":1,""FishBig"":0,""CanSmall"":1,""CanBig"":1,""Seaweed"":0}","{""FishSmall"":2,""FishBig"":1,""CanSmall"":0,""CanBig"":0,""Seaweed"":0}",-6.666666667,10,1,630.969,0.961538462,2,2,2,2,2,2,2,2,2,2,1,2,2,100,9,0.90625,0,10
3714644,25,Male,1,Adults,4,1,trial_10,,1,0,,3494.35,866.01,6227.605,"{""FishSmall"":0,""FishBig"":0,""CanSmall"":2,""CanBig"":1,""Seaweed"":3}","{""FishSmall"":2,""FishBig"":2,""CanSmall"":0,""CanBig"":0,""Seaweed"":2}",100,100,-6.666666667,10,-3.333333333,6.666666667,7.453559925,8.164965809,3,2,16.66666667,0.711405884,-1,0,"{""FishSmall"":0,""FishBig"":1,""CanSmall"":1,""CanBig"":1,""Seaweed"":0}","{""FishSmall"":1,""FishBig"":1,""CanSmall"":1,""CanBig"":0,""Seaweed"":0}",-6.666666667,6.666666667,1,630.969,0.961538462,2,2,2,2,2,2,2,2,2,2,1,2,2,100,10,0.90625,0,-10
3714644,25,Male,1,Adults,4,,catch_1,0,,,3424.275,,,,"{""FishSmall"":4,""FishBig"":2,""CanSmall"":0,""CanBig"":0,""Seaweed"":0}","{""FishSmall"":4,""FishBig"":2,""CanSmall"":0,""CanBig"":0,""Seaweed"":0}",0,0,,,,,,,,,,,,,"{""FishSmall"":2,""FishBig"":1,""CanSmall"":0,""CanBig"":0,""Seaweed"":0}","{""FishSmall"":2,""FishBig"":1,""CanSmall"":0,""CanBig"":0,""Seaweed"":0}",,,1,630.969,0.961538462,2,2,2,2,2,2,2,2,2,2,1,2,2,100,,0.90625,,
3714644,25,Male,1,Adults,4,0,trial_11,,0,1,,11158.64,1043.39,2582.655,"{""FishSmall"":0,""FishBig"":0,""CanSmall"":2,""CanBig"":1,""Seaweed"":3}","{""FishSmall"":4,""FishBig"":0,""CanSmall"":0,""CanBig"":0,""Seaweed"":2}",50,50,-6.666666667,6.666666667,6.666666667,10,7.453559925,4.714045208,3,2,13.33333333,-2.739514717,-1,0,"{""FishSmall"":1,""FishBig"":1,""CanSmall"":1,""CanBig"":0,""Seaweed"":0}","{""FishSmall"":3,""FishBig"":0,""CanSmall"":0,""CanBig"":0,""Seaweed"":0}",6.666666667,6.666666667,1,630.969,0.961538462,2,2,2,2,2,2,2,2,2,2,1,2,2,100,11,0.90625,10,0
3714644,25,Male,1,Adults,4,0,trial_12,,,,,13342.04,,,"{""FishSmall"":0,""FishBig"":0,""CanSmall"":2,""CanBig"":3,""Seaweed"":1}","{""FishSmall"":1,""FishBig"":0,""CanSmall"":2,""CanBig"":1,""Seaweed"":2}",0,0,-13.33333333,-5,-16.66666667,-10,7.453559925,9.574271078,1,2,8.333333333,2.120711153,1,0,"{""FishSmall"":0,""FishBig"":0,""CanSmall"":1,""CanBig"":2,""Seaweed"":0}","{""FishSmall"":1,""FishBig"":0,""CanSmall"":0,""CanBig"":2,""Seaweed"":0}",-16.66666667,-5,1,630.969,0.961538462,2,2,2,2,2,2,2,2,2,2,1,2,2,100,12,0.90625,0,-20
3714644,25,Male,1,Adults,4,0,trial_13,,,0,,12599.115,1215.74,26826.66,"{""FishSmall"":5,""FishBig"":1,""CanSmall"":0,""CanBig"":0,""Seaweed"":0}","{""FishSmall"":0,""FishBig"":1,""CanSmall"":0,""CanBig"":1,""Seaweed"":4}",0,50,11.66666667,0,13.33333333,0,3.726779962,11.54700538,0,4,-11.66666667,7.820225421,4,50,"{""FishSmall"":2,""FishBig"":1,""CanSmall"":0,""CanBig"":0,""Seaweed"":0}","{""FishSmall"":2,""FishBig"":0,""CanSmall"":0,""CanBig"":1,""Seaweed"":0}",13.33333333,0,1,630.969,0.961538462,2,2,2,2,2,2,2,2,2,2,1,2,2,100,13,0.90625,10,10
3714644,25,Male,1,Adults,4,0,trial_14,,1,1,,6358.115,11834.485,28260.785,"{""FishSmall"":0,""FishBig"":0,""CanSmall"":1,""CanBig"":3,""Seaweed"":2}","{""FishSmall"":1,""FishBig"":0,""CanSmall"":1,""CanBig"":1,""Seaweed"":3}",50,100,-11.66666667,-3.333333333,-16.66666667,-3.333333333,8.975274679,9.428090416,2,3,8.333333333,0.452815737,1,50,"{""FishSmall"":0,""FishBig"":0,""CanSmall"":1,""CanBig"":2,""Seaweed"":0}","{""FishSmall"":1,""FishBig"":0,""CanSmall"":2,""CanBig"":0,""Seaweed"":0}",-16.66666667,-3.333333333,1,630.969,0.961538462,2,2,2,2,2,2,2,2,2,2,1,2,2,100,14,0.90625,0,0
3714644,25,Male,1,Adults,4,0,trial_15,,,,,1527.54,,,"{""FishSmall"":0,""FishBig"":0,""CanSmall"":3,""CanBig"":1,""Seaweed"":2}","{""FishSmall"":1,""FishBig"":2,""CanSmall"":0,""CanBig"":0,""Seaweed"":3}",50,0,-8.333333333,8.333333333,-13.33333333,-3.333333333,6.871842709,8.975274679,2,3,16.66666667,2.103431969,1,-50,"{""FishSmall"":0,""FishBig"":0,""CanSmall"":2,""CanBig"":1,""Seaweed"":0}","{""FishSmall"":0,""FishBig"":1,""CanSmall"":1,""CanBig"":1,""Seaweed"":0}",-13.33333333,8.333333333,1,630.969,0.961538462,2,2,2,2,2,2,2,2,2,2,1,2,2,100,15,0.90625,0,0
3714644,25,Male,1,Adults,4,1,trial_16,,1,,,3094.775,1908.445,,"{""FishSmall"":0,""FishBig"":0,""CanSmall"":2,""CanBig"":1,""Seaweed"":3}","{""FishSmall"":1,""FishBig"":0,""CanSmall"":1,""CanBig"":1,""Seaweed"":3}",100,50,-6.666666667,-3.333333333,-6.666666667,-6.666666667,7.453559925,9.428090416,3,3,3.333333333,1.974530491,0,-50,"{""FishSmall"":1,""FishBig"":0,""CanSmall"":1,""CanBig"":1,""Seaweed"":0}","{""FishSmall"":0,""FishBig"":1,""CanSmall"":0,""CanBig"":2,""Seaweed"":0}",-6.666666667,-6.666666667,1,630.969,0.961538462,2,2,2,2,2,2,2,2,2,2,1,2,2,100,16,0.90625,0,20
3714644,25,Male,1,Adults,4,0,trial_17,,1,,,3447.02,5230.49,,"{""FishSmall"":2,""FishBig"":0,""CanSmall"":2,""CanBig"":0,""Seaweed"":2}","{""FishSmall"":2,""FishBig"":1,""CanSmall"":1,""CanBig"":0,""Seaweed"":2}",50,0,0,5,-6.666666667,-3.333333333,8.164965809,9.574271078,2,2,5,1.409305268,0,-50,"{""FishSmall"":1,""FishBig"":0,""CanSmall"":1,""CanBig"":1,""Seaweed"":0}","{""FishSmall"":1,""FishBig"":0,""CanSmall"":2,""CanBig"":0,""Seaweed"":0}",-6.666666667,5,1,630.969,0.961538462,2,2,2,2,2,2,2,2,2,2,1,2,2,100,17,0.90625,0,0
3714644,25,Male,1,Adults,4,0,trial_18,,0,,,18022.175,11094.545,,"{""FishSmall"":2,""FishBig"":1,""CanSmall"":1,""CanBig"":0,""Seaweed"":2}","{""FishSmall"":1,""FishBig"":0,""CanSmall"":2,""CanBig"":1,""Seaweed"":2}",100,0,5,-5,13.33333333,-6.666666667,9.574271078,9.574271078,2,2,-10,0,0,-100,"{""FishSmall"":2,""FishBig"":1,""CanSmall"":0,""CanBig"":0,""Seaweed"":0}","{""FishSmall"":1,""FishBig"":0,""CanSmall"":1,""CanBig"":1,""Seaweed"":0}",13.33333333,-5,1,630.969,0.961538462,2,2,2,2,2,2,2,2,2,2,1,2,2,100,18,0.90625,10,-10
3714644,25,Male,1,Adults,4,1,trial_19,,,,,4019.175,,,"{""FishSmall"":1,""FishBig"":0,""CanSmall"":3,""CanBig"":1,""Seaweed"":1}","{""FishSmall"":2,""FishBig"":1,""CanSmall"":0,""CanBig"":0,""Seaweed"":3}",50,0,-6.666666667,6.666666667,-13.33333333,13.33333333,9.428090416,7.453559925,1,3,13.33333333,-1.974530491,2,-50,"{""FishSmall"":0,""FishBig"":0,""CanSmall"":2,""CanBig"":1,""Seaweed"":0}","{""FishSmall"":2,""FishBig"":1,""CanSmall"":0,""CanBig"":0,""Seaweed"":0}",-6.666666667,13.33333333,1,630.969,0.961538462,2,2,2,2,2,2,2,2,2,2,1,2,2,100,19,0.90625,0,0
3714644,25,Male,1,Adults,4,0,trial_20,,0,1,,824.795,1018.82,2795.265,"{""FishSmall"":3,""FishBig"":1,""CanSmall"":1,""CanBig"":0,""Seaweed"":1}","{""FishSmall"":1,""FishBig"":0,""CanSmall"":3,""CanBig"":1,""Seaweed"":1}",100,50,6.666666667,-6.666666667,3.333333333,-16.66666667,9.428090416,9.428090416,1,1,-13.33333333,-1.78E-15,0,-50,"{""FishSmall"":2,""FishBig"":0,""CanSmall"":1,""CanBig"":0,""Seaweed"":0}","{""FishSmall"":0,""FishBig"":0,""CanSmall"":1,""CanBig"":2,""Seaweed"":0}",3.333333333,-6.666666667,1,630.969,0.961538462,2,2,2,2,2,2,2,2,2,2,1,2,2,100,20,0.90625,10,0
3714644,25,Male,1,Adults,4,,catch_2,1,,,1642.33,,,,"{""FishSmall"":0,""FishBig"":0,""CanSmall"":3,""CanBig"":3,""Seaweed"":0}","{""FishSmall"":0,""FishBig"":0,""CanSmall"":3,""CanBig"":3,""Seaweed"":0}",0,0,,,,,,,,,,,,,"{""FishSmall"":0,""FishBig"":0,""CanSmall"":2,""CanBig"":1,""Seaweed"":0}","{""FishSmall"":0,""FishBig"":0,""CanSmall"":2,""CanBig"":1,""Seaweed"":0}",,,1,630.969,0.961538462,2,2,2,2,2,2,2,2,2,2,1,2,2,100,,0.90625,,
3714644,25,Male,1,Adults,4,1,trial_21,,,1,,1934.295,,3899.78,"{""FishSmall"":0,""FishBig"":0,""CanSmall"":1,""CanBig"":2,""Seaweed"":3}","{""FishSmall"":0,""FishBig"":0,""CanSmall"":2,""CanBig"":2,""Seaweed"":2}",0,100,-8.333333333,-10,-3.333333333,-16.66666667,8.975274679,8.164965809,3,2,-1.666666667,-0.810308869,-1,100,"{""FishSmall"":0,""FishBig"":1,""CanSmall"":1,""CanBig"":1,""Seaweed"":0}","{""FishSmall"":0,""FishBig"":0,""CanSmall"":1,""CanBig"":2,""Seaweed"":0}",-8.333333333,-16.66666667,1,630.969,0.961538462,2,2,2,2,2,2,2,2,2,2,1,2,2,100,21,0.90625,0,0
3714644,25,Male,1,Adults,4,0,trial_22,,1,1,,2296.085,8541.28,962.2399999,"{""FishSmall"":0,""FishBig"":0,""CanSmall"":3,""CanBig"":2,""Seaweed"":1}","{""FishSmall"":1,""FishBig"":0,""CanSmall"":2,""CanBig"":0,""Seaweed"":3}",50,50,-11.66666667,-1.666666667,-13.33333333,6.666666667,6.871842709,6.871842709,1,3,10,0,2,0,"{""FishSmall"":0,""FishBig"":0,""CanSmall"":2,""CanBig"":1,""Seaweed"":0}","{""FishSmall"":1,""FishBig"":1,""CanSmall"":1,""CanBig"":0,""Seaweed"":0}",-13.33333333,-1.666666667,1,630.969,0.961538462,2,2,2,2,2,2,2,2,2,2,1,2,2,100,22,0.90625,0,0
3714644,25,Male,1,Adults,4,0,trial_23,,,,,4027.13,,,"{""FishSmall"":0,""FishBig"":0,""CanSmall"":3,""CanBig"":2,""Seaweed"":1}","{""FishSmall"":1,""FishBig"":0,""CanSmall"":3,""CanBig"":0,""Seaweed"":2}",0,0,-11.66666667,-3.333333333,-6.666666667,-3.333333333,6.871842709,7.453559925,1,2,8.333333333,0.581717216,1,0,"{""FishSmall"":1,""FishBig"":0,""CanSmall"":1,""CanBig"":1,""Seaweed"":0}","{""FishSmall"":1,""FishBig"":0,""CanSmall"":2,""CanBig"":0,""Seaweed"":0}",-6.666666667,-3.333333333,1,630.969,0.961538462,2,2,2,2,2,2,2,2,2,2,1,2,2,100,23,0.90625,-20,0
3714644,25,Male,1,Adults,4,0,trial_24,,0,,,2543.995,4215.075,,"{""FishSmall"":0,""FishBig"":4,""CanSmall"":0,""CanBig"":0,""Seaweed"":2}","{""FishSmall"":1,""FishBig"":0,""CanSmall"":3,""CanBig"":1,""Seaweed"":1}",100,0,13.33333333,-6.666666667,10,-16.66666667,9.428090416,9.428090416,2,1,-20,-1.78E-15,-1,-100,"{""FishSmall"":0,""FishBig"":2,""CanSmall"":1,""CanBig"":0,""Seaweed"":0}","{""FishSmall"":0,""FishBig"":0,""CanSmall"":1,""CanBig"":2,""Seaweed"":0}",10,-6.666666667,1,630.969,0.961538462,2,2,2,2,2,2,2,2,2,2,1,2,2,100,24,0.90625,20,0
3714644,25,Male,1,Adults,4,1,trial_25,,0,0,,839.96,1848.74,5407.025,"{""FishSmall"":3,""FishBig"":1,""CanSmall"":0,""CanBig"":0,""Seaweed"":2}","{""FishSmall"":1,""FishBig"":2,""CanSmall"":0,""CanBig"":0,""Seaweed"":3}",50,100,8.333333333,8.333333333,6.666666667,6.666666667,6.871842709,8.975274679,2,3,0,2.103431969,1,50,"{""FishSmall"":1,""FishBig"":1,""CanSmall"":1,""CanBig"":0,""Seaweed"":0}","{""FishSmall"":0,""FishBig"":2,""CanSmall"":0,""CanBig"":1,""Seaweed"":0}",8.333333333,6.666666667,1,630.969,0.961538462,2,2,2,2,2,2,2,2,2,2,1,2,2,100,25,0.90625,20,-20
3714644,25,Male,1,Adults,4,1,trial_26,,0,,,2038.36,1637.345,,"{""FishSmall"":4,""FishBig"":0,""CanSmall"":1,""CanBig"":0,""Seaweed"":1}","{""FishSmall"":2,""FishBig"":3,""CanSmall"":0,""CanBig"":0,""Seaweed"":1}",100,0,5,13.33333333,3.333333333,13.33333333,7.637626158,7.453559925,1,1,8.333333333,-0.184066233,0,-100,"{""FishSmall"":2,""FishBig"":0,""CanSmall"":1,""CanBig"":0,""Seaweed"":0}","{""FishSmall"":2,""FishBig"":1,""CanSmall"":0,""CanBig"":0,""Seaweed"":0}",5,13.33333333,1,630.969,0.961538462,2,2,2,2,2,2,2,2,2,2,1,2,2,100,26,0.90625,-10,10
3714644,25,Male,1,Adults,4,0,trial_27,,,0,,8677.255,,1742.13,"{""FishSmall"":3,""FishBig"":1,""CanSmall"":1,""CanBig"":0,""Seaweed"":1}","{""FishSmall"":0,""FishBig"":0,""CanSmall"":3,""CanBig"":0,""Seaweed"":3}",50,50,6.666666667,-5,3.333333333,-10,9.428090416,5,1,3,-11.66666667,-4.428090416,2,0,"{""FishSmall"":2,""FishBig"":0,""CanSmall"":1,""CanBig"":0,""Seaweed"":0}","{""FishSmall"":0,""FishBig"":0,""CanSmall"":3,""CanBig"":0,""Seaweed"":0}",3.333333333,-5,1,630.969,0.961538462,2,2,2,2,2,2,2,2,2,2,1,2,2,100,27,0.90625,10,-10
3714644,25,Male,1,Adults,4,1,trial_28,,,1,,6554.805,,1905.66,"{""FishSmall"":1,""FishBig"":0,""CanSmall"":2,""CanBig"":1,""Seaweed"":2}","{""FishSmall"":2,""FishBig"":1,""CanSmall"":1,""CanBig"":0,""Seaweed"":2}",50,100,-5,5,-6.666666667,10,9.574271078,9.574271078,2,2,10,0,0,50,"{""FishSmall"":1,""FishBig"":0,""CanSmall"":1,""CanBig"":1,""Seaweed"":0}","{""FishSmall"":3,""FishBig"":0,""CanSmall"":0,""CanBig"":0,""Seaweed"":0}",-5,10,1,630.969,0.961538462,2,2,2,2,2,2,2,2,2,2,1,2,2,100,28,0.90625,-10,0
3714644,25,Male,1,Adults,4,0,trial_29,,,0,,2448.285,,2814.72,"{""FishSmall"":1,""FishBig"":0,""CanSmall"":3,""CanBig"":0,""Seaweed"":2}","{""FishSmall"":1,""FishBig"":1,""CanSmall"":1,""CanBig"":0,""Seaweed"":3}",0,100,-3.333333333,3.333333333,-13.33333333,-6.666666667,7.453559925,9.428090416,2,3,6.666666667,1.974530491,1,100,"{""FishSmall"":0,""FishBig"":0,""CanSmall"":2,""CanBig"":1,""Seaweed"":0}","{""FishSmall"":0,""FishBig"":1,""CanSmall"":0,""CanBig"":2,""Seaweed"":0}",-13.33333333,3.333333333,1,630.969,0.961538462,2,2,2,2,2,2,2,2,2,2,1,2,2,100,29,0.90625,0,20
3714644,25,Male,1,Adults,4,0,trial_30,,,,,6279.76,,,"{""FishSmall"":1,""FishBig"":0,""CanSmall"":3,""CanBig"":1,""Seaweed"":1}","{""FishSmall"":1,""FishBig"":1,""CanSmall"":1,""CanBig"":0,""Seaweed"":3}",50,0,-6.666666667,3.333333333,-6.666666667,-3.333333333,9.428090416,9.428090416,1,3,10,1.78E-15,2,-50,"{""FishSmall"":1,""FishBig"":0,""CanSmall"":1,""CanBig"":1,""Seaweed"":0}","{""FishSmall"":0,""FishBig"":1,""CanSmall"":1,""CanBig"":1,""Seaweed"":0}",-6.666666667,3.333333333,1,630.969,0.961538462,2,2,2,2,2,2,2,2,2,2,1,2,2,100,30,0.90625,0,0
3714666,30,Male,1,Adults,4,1,trial_1,,,1,,10334.065,,3485.015,"{""FishSmall"":1,""FishBig"":4,""CanSmall"":0,""CanBig"":0,""Seaweed"":1}","{""FishSmall"":1,""FishBig"":2,""CanSmall"":0,""CanBig"":0,""Seaweed"":3}",50,50,15,8.333333333,16.66666667,-3.333333333,7.637626158,8.975274679,1,3,-6.666666667,1.33764852,2,0,"{""FishSmall"":1,""FishBig"":2,""CanSmall"":0,""CanBig"":0,""Seaweed"":0}","{""FishSmall"":0,""FishBig"":1,""CanSmall"":1,""CanBig"":1,""Seaweed"":0}",15,-3.333333333,1,1222.4295,1,2,2,2,2,2,2,2,2,2,2,2,2,2,100,1,0.970588235,0,0
3714666,30,Male,1,Adults,4,0,trial_2,,,,,4602.21,,,"{""FishSmall"":2,""FishBig"":0,""CanSmall"":3,""CanBig"":0,""Seaweed"":1}","{""FishSmall"":3,""FishBig"":1,""CanSmall"":1,""CanBig"":0,""Seaweed"":1}",50,0,-1.666666667,6.666666667,6.666666667,6.666666667,8.975274679,9.428090416,1,1,8.333333333,0.452815737,0,-50,"{""FishSmall"":1,""FishBig"":1,""CanSmall"":1,""CanBig"":0,""Seaweed"":0}","{""FishSmall"":1,""FishBig"":1,""CanSmall"":1,""CanBig"":0,""Seaweed"":0}",6.666666667,6.666666667,1,1222.4295,1,2,2,2,2,2,2,2,2,2,2,2,2,2,100,2,0.970588235,20,0
3714666,30,Male,1,Adults,4,1,trial_3,,,0,,1851.29,,1663,"{""FishSmall"":1,""FishBig"":1,""CanSmall"":1,""CanBig"":0,""Seaweed"":3}","{""FishSmall"":2,""FishBig"":2,""CanSmall"":0,""CanBig"":0,""Seaweed"":2}",0,100,3.333333333,10,-3.333333333,16.66666667,9.428090416,8.164965809,3,2,6.666666667,-1.263124607,-1,100,"{""FishSmall"":0,""FishBig"":1,""CanSmall"":1,""CanBig"":1,""Seaweed"":0}","{""FishSmall"":1,""FishBig"":2,""CanSmall"":0,""CanBig"":0,""Seaweed"":0}",3.333333333,16.66666667,1,1222.4295,1,2,2,2,2,2,2,2,2,2,2,2,2,2,100,3,0.970588235,-20,20
3714666,30,Male,1,Adults,4,1,trial_4,,1,0,,6034.515,3555.08,3361.58,"{""FishSmall"":0,""FishBig"":0,""CanSmall"":3,""CanBig"":2,""Seaweed"":1}","{""FishSmall"":2,""FishBig"":0,""CanSmall"":2,""CanBig"":0,""Seaweed"":2}",50,50,-11.66666667,0,0,3.333333333,6.871842709,8.164965809,1,2,11.66666667,1.2931231,1,0,"{""FishSmall"":0,""FishBig"":1,""CanSmall"":2,""CanBig"":0,""Seaweed"":0}","{""FishSmall"":1,""FishBig"":1,""CanSmall"":0,""CanBig"":1,""Seaweed"":0}",-11.66666667,3.333333333,1,1222.4295,1,2,2,2,2,2,2,2,2,2,2,2,2,2,100,4,0.970588235,0,10
3714666,30,Male,1,Adults,4,0,trial_5,,,,,1823.045,,,"{""FishSmall"":0,""FishBig"":0,""CanSmall"":1,""CanBig"":2,""Seaweed"":3}","{""FishSmall"":1,""FishBig"":0,""CanSmall"":3,""CanBig"":1,""Seaweed"":1}",50,0,-8.333333333,-6.666666667,-3.333333333,-13.33333333,8.975274679,9.428090416,3,1,1.666666667,0.452815737,-2,-50,"{""FishSmall"":0,""FishBig"":1,""CanSmall"":1,""CanBig"":1,""Seaweed"":0}","{""FishSmall"":0,""FishBig"":0,""CanSmall"":2,""CanBig"":1,""Seaweed"":0}",-3.333333333,-6.666666667,1,1222.4295,1,2,2,2,2,2,2,2,2,2,2,2,2,2,100,5,0.970588235,-20,0
3714666,30,Male,1,Adults,4,1,trial_6,,,,,5795.625,,,"{""FishSmall"":1,""FishBig"":1,""CanSmall"":1,""CanBig"":0,""Seaweed"":3}","{""FishSmall"":2,""FishBig"":1,""CanSmall"":0,""CanBig"":0,""Seaweed"":3}",50,50,3.333333333,6.666666667,-3.333333333,-6.666666667,9.428090416,7.453559925,3,3,3.333333333,-1.974530491,0,0,"{""FishSmall"":1,""FishBig"":0,""CanSmall"":2,""CanBig"":0,""Seaweed"":0}","{""FishSmall"":1,""FishBig"":0,""CanSmall"":1,""CanBig"":1,""Seaweed"":0}",3.333333333,-6.666666667,1,1222.4295,1,2,2,2,2,2,2,2,2,2,2,2,2,2,100,6,0.970588235,10,10
3714666,30,Male,1,Adults,4,0,trial_7,,1,0,,4609.02,1592.42,6957.065,"{""FishSmall"":1,""FishBig"":0,""CanSmall"":1,""CanBig"":1,""Seaweed"":3}","{""FishSmall"":2,""FishBig"":0,""CanSmall"":2,""CanBig"":0,""Seaweed"":2}",100,100,-3.333333333,0,-6.666666667,-6.666666667,9.428090416,8.164965809,3,2,3.333333333,-1.263124607,-1,0,"{""FishSmall"":1,""FishBig"":0,""CanSmall"":1,""CanBig"":1,""Seaweed"":0}","{""FishSmall"":1,""FishBig"":0,""CanSmall"":1,""CanBig"":1,""Seaweed"":0}",-6.666666667,0,1,1222.4295,1,2,2,2,2,2,2,2,2,2,2,2,2,2,100,7,0.970588235,0,10
3714666,30,Male,1,Adults,4,0,trial_8,,,,,638.77,,,"{""FishSmall"":1,""FishBig"":3,""CanSmall"":0,""CanBig"":0,""Seaweed"":2}","{""FishSmall"":2,""FishBig"":1,""CanSmall"":1,""CanBig"":0,""Seaweed"":2}",50,0,11.66666667,5,16.66666667,-3.333333333,8.975274679,9.574271078,2,2,-6.666666667,0.598996399,0,-50,"{""FishSmall"":1,""FishBig"":2,""CanSmall"":0,""CanBig"":0,""Seaweed"":0}","{""FishSmall"":0,""FishBig"":1,""CanSmall"":1,""CanBig"":1,""Seaweed"":0}",16.66666667,5,1,1222.4295,1,2,2,2,2,2,2,2,2,2,2,2,2,2,100,8,0.970588235,0,0
3714666,30,Male,1,Adults,4,1,trial_9,,,1,,7353.455,,3486.98,"{""FishSmall"":4,""FishBig"":1,""CanSmall"":0,""CanBig"":0,""Seaweed"":1}","{""FishSmall"":1,""FishBig"":0,""CanSmall"":2,""CanBig"":1,""Seaweed"":2}",50,100,10,-5,10,-3.333333333,5.773502692,9.574271078,1,2,-15,3.800768386,1,50,"{""FishSmall"":3,""FishBig"":0,""CanSmall"":0,""CanBig"":0,""Seaweed"":0}","{""FishSmall"":0,""FishBig"":1,""CanSmall"":1,""CanBig"":1,""Seaweed"":0}",10,-3.333333333,1,1222.4295,1,2,2,2,2,2,2,2,2,2,2,2,2,2,100,9,0.970588235,0,0
3714666,30,Male,1,Adults,4,0,trial_10,,1,,,3910.065,3068.35,,"{""FishSmall"":0,""FishBig"":0,""CanSmall"":2,""CanBig"":2,""Seaweed"":2}","{""FishSmall"":2,""FishBig"":2,""CanSmall"":0,""CanBig"":0,""Seaweed"":2}",50,0,-10,10,-13.33333333,3.333333333,8.164965809,8.164965809,2,2,20,0,0,-50,"{""FishSmall"":0,""FishBig"":0,""CanSmall"":2,""CanBig"":1,""Seaweed"":0}","{""FishSmall"":1,""FishBig"":1,""CanSmall"":0,""CanBig"":1,""Seaweed"":0}",-13.33333333,10,1,1222.4295,1,2,2,2,2,2,2,2,2,2,2,2,2,2,100,10,0.970588235,0,-20
3714666,30,Male,1,Adults,4,,catch_1,0,,,5626.535,,,,"{""FishSmall"":4,""FishBig"":2,""CanSmall"":0,""CanBig"":0,""Seaweed"":0}","{""FishSmall"":4,""FishBig"":2,""CanSmall"":0,""CanBig"":0,""Seaweed"":0}",0,0,,,,,,,,,,,,,"{""FishSmall"":2,""FishBig"":1,""CanSmall"":0,""CanBig"":0,""Seaweed"":0}","{""FishSmall"":3,""FishBig"":0,""CanSmall"":0,""CanBig"":0,""Seaweed"":0}",,,1,1222.4295,1,2,2,2,2,2,2,2,2,2,2,2,2,2,100,,0.970588235,,
3714666,30,Male,1,Adults,4,0,trial_11,,1,0,,4827.885,1196.82,935.335,"{""FishSmall"":2,""FishBig"":2,""CanSmall"":0,""CanBig"":0,""Seaweed"":2}","{""FishSmall"":3,""FishBig"":1,""CanSmall"":1,""CanBig"":0,""Seaweed"":1}",100,100,10,6.666666667,-6.666666667,3.333333333,8.164965809,9.428090416,2,1,-3.333333333,1.263124607,-1,0,"{""FishSmall"":1,""FishBig"":0,""CanSmall"":1,""CanBig"":1,""Seaweed"":0}","{""FishSmall"":2,""FishBig"":0,""CanSmall"":1,""CanBig"":0,""Seaweed"":0}",-6.666666667,6.666666667,1,1222.4295,1,2,2,2,2,2,2,2,2,2,2,2,2,2,100,11,0.970588235,0,10
3714666,30,Male,1,Adults,4,0,trial_12,,0,0,,5318.475,1187.625,809.98,"{""FishSmall"":3,""FishBig"":1,""CanSmall"":1,""CanBig"":0,""Seaweed"":1}","{""FishSmall"":4,""FishBig"":0,""CanSmall"":1,""CanBig"":0,""Seaweed"":1}",100,100,6.666666667,5,6.666666667,13.33333333,9.428090416,7.637626158,1,1,-1.666666667,-1.790464258,0,0,"{""FishSmall"":1,""FishBig"":1,""CanSmall"":1,""CanBig"":0,""Seaweed"":0}","{""FishSmall"":2,""FishBig"":1,""CanSmall"":0,""CanBig"":0,""Seaweed"":0}",6.666666667,5,1,1222.4295,1,2,2,2,2,2,2,2,2,2,2,2,2,2,100,12,0.970588235,-10,10
3714666,30,Male,1,Adults,4,1,trial_13,,0,0,,6744.925,6585.595,1722.545,"{""FishSmall"":2,""FishBig"":0,""CanSmall"":2,""CanBig"":0,""Seaweed"":2}","{""FishSmall"":3,""FishBig"":0,""CanSmall"":2,""CanBig"":0,""Seaweed"":1}",50,50,0,1.666666667,13.33333333,-3.333333333,8.164965809,8.975274679,2,1,1.666666667,0.810308869,-1,0,"{""FishSmall"":2,""FishBig"":1,""CanSmall"":0,""CanBig"":0,""Seaweed"":0}","{""FishSmall"":1,""FishBig"":0,""CanSmall"":2,""CanBig"":0,""Seaweed"":0}",0,-3.333333333,1,1222.4295,1,2,2,2,2,2,2,2,2,2,2,2,2,2,100,13,0.970588235,10,-10
3714666,30,Male,1,Adults,4,0,trial_14,,0,,,656.07,1560.72,,"{""FishSmall"":0,""FishBig"":0,""CanSmall"":3,""CanBig"":0,""Seaweed"":3}","{""FishSmall"":3,""FishBig"":1,""CanSmall"":0,""CanBig"":0,""Seaweed"":2}",100,0,-5,8.333333333,0,13.33333333,5,6.871842709,3,2,13.33333333,1.871842709,-1,-100,"{""FishSmall"":0,""FishBig"":1,""CanSmall"":2,""CanBig"":0,""Seaweed"":0}","{""FishSmall"":2,""FishBig"":1,""CanSmall"":0,""CanBig"":0,""Seaweed"":0}",0,8.333333333,1,1222.4295,1,2,2,2,2,2,2,2,2,2,2,2,2,2,100,14,0.970588235,-10,10
3714666,30,Male,1,Adults,4,1,trial_15,,1,1,,4087.865,2061.13,3206.135,"{""FishSmall"":1,""FishBig"":0,""CanSmall"":2,""CanBig"":1,""Seaweed"":2}","{""FishSmall"":0,""FishBig"":0,""CanSmall"":1,""CanBig"":3,""Seaweed"":2}",50,100,-5,-11.66666667,-6.666666667,-6.666666667,9.574271078,8.975274679,2,2,-6.666666667,-0.598996399,0,50,"{""FishSmall"":1,""FishBig"":0,""CanSmall"":1,""CanBig"":1,""Seaweed"":0}","{""FishSmall"":1,""FishBig"":0,""CanSmall"":1,""CanBig"":1,""Seaweed"":0}",-5,-6.666666667,1,1222.4295,1,2,2,2,2,2,2,2,2,2,2,2,2,2,100,15,0.970588235,0,0
3714666,30,Male,1,Adults,4,1,trial_16,,,,,5068.63,,,"{""FishSmall"":0,""FishBig"":0,""CanSmall"":1,""CanBig"":3,""Seaweed"":2}","{""FishSmall"":1,""FishBig"":0,""CanSmall"":2,""CanBig"":1,""Seaweed"":2}",50,50,-11.66666667,-5,-10,-13.33333333,8.975274679,9.574271078,2,2,6.666666667,0.598996399,0,0,"{""FishSmall"":1,""FishBig"":0,""CanSmall"":0,""CanBig"":2,""Seaweed"":0}","{""FishSmall"":0,""FishBig"":0,""CanSmall"":2,""CanBig"":1,""Seaweed"":0}",-11.66666667,-13.33333333,1,1222.4295,1,2,2,2,2,2,2,2,2,2,2,2,2,2,100,16,0.970588235,0,0
3714666,30,Male,1,Adults,4,1,trial_17,,,0,,24182.23,,5635.695,"{""FishSmall"":3,""FishBig"":0,""CanSmall"":2,""CanBig"":0,""Seaweed"":1}","{""FishSmall"":2,""FishBig"":1,""CanSmall"":1,""CanBig"":0,""Seaweed"":2}",0,100,1.666666667,5,-3.333333333,3.333333333,8.975274679,9.574271078,1,2,3.333333333,0.598996399,1,100,"{""FishSmall"":1,""FishBig"":0,""CanSmall"":2,""CanBig"":0,""Seaweed"":0}","{""FishSmall"":1,""FishBig"":1,""CanSmall"":0,""CanBig"":1,""Seaweed"":0}",1.666666667,3.333333333,1,1222.4295,1,2,2,2,2,2,2,2,2,2,2,2,2,2,100,17,0.970588235,0,10
3714666,30,Male,1,Adults,4,1,trial_18,,,0,,4358.72,,894.545,"{""FishSmall"":1,""FishBig"":0,""CanSmall"":4,""CanBig"":0,""Seaweed"":1}","{""FishSmall"":3,""FishBig"":1,""CanSmall"":0,""CanBig"":0,""Seaweed"":2}",0,50,-5,8.333333333,6.666666667,0,7.637626158,6.871842709,1,2,13.33333333,-0.765783449,1,50,"{""FishSmall"":1,""FishBig"":1,""CanSmall"":1,""CanBig"":0,""Seaweed"":0}","{""FishSmall"":2,""FishBig"":0,""CanSmall"":0,""CanBig"":1,""Seaweed"":0}",-5,0,1,1222.4295,1,2,2,2,2,2,2,2,2,2,2,2,2,2,100,18,0.970588235,0,-20
3714666,30,Male,1,Adults,4,0,trial_19,,1,1,,7902.41,2401.48,2456.07,"{""FishSmall"":0,""FishBig"":0,""CanSmall"":2,""CanBig"":1,""Seaweed"":3}","{""FishSmall"":1,""FishBig"":0,""CanSmall"":2,""CanBig"":1,""Seaweed"":2}",100,100,-6.666666667,-5,-6.666666667,6.666666667,7.453559925,9.574271078,3,2,1.666666667,2.120711153,-1,0,"{""FishSmall"":1,""FishBig"":0,""CanSmall"":1,""CanBig"":1,""Seaweed"":0}","{""FishSmall"":1,""FishBig"":1,""CanSmall"":1,""CanBig"":0,""Seaweed"":0}",-6.666666667,-5,1,1222.4295,1,2,2,2,2,2,2,2,2,2,2,2,2,2,100,19,0.970588235,0,0
3714666,30,Male,1,Adults,4,1,trial_20,,0,1,,3002.16,816.215,1755.53,"{""FishSmall"":1,""FishBig"":4,""CanSmall"":0,""CanBig"":0,""Seaweed"":1}","{""FishSmall"":1,""FishBig"":0,""CanSmall"":3,""CanBig"":1,""Seaweed"":1}",100,100,15,-6.666666667,16.66666667,-6.666666667,7.637626158,9.428090416,1,1,-21.66666667,1.790464258,0,0,"{""FishSmall"":1,""FishBig"":2,""CanSmall"":0,""CanBig"":0,""Seaweed"":0}","{""FishSmall"":1,""FishBig"":0,""CanSmall"":1,""CanBig"":1,""Seaweed"":0}",15,-6.666666667,1,1222.4295,1,2,2,2,2,2,2,2,2,2,2,2,2,2,100,20,0.970588235,10,0
3714666,30,Male,1,Adults,4,,catch_2,1,,,4231.96,,,,"{""FishSmall"":0,""FishBig"":0,""CanSmall"":3,""CanBig"":3,""Seaweed"":0}","{""FishSmall"":0,""FishBig"":0,""CanSmall"":3,""CanBig"":3,""Seaweed"":0}",0,0,,,,,,,,,,,,,"{""FishSmall"":0,""FishBig"":0,""CanSmall"":2,""CanBig"":1,""Seaweed"":0}","{""FishSmall"":0,""FishBig"":0,""CanSmall"":2,""CanBig"":1,""Seaweed"":0}",,,1,1222.4295,1,2,2,2,2,2,2,2,2,2,2,2,2,2,100,,0.970588235,,
3714666,30,Male,1,Adults,4,0,trial_21,,1,,,1008.665,1440.62,,"{""FishSmall"":0,""FishBig"":0,""CanSmall"":4,""CanBig"":1,""Seaweed"":1}","{""FishSmall"":0,""FishBig"":0,""CanSmall"":2,""CanBig"":2,""Seaweed"":2}",100,0,-10,-10,-3.333333333,0,5.773502692,8.164965809,1,2,0,2.391463117,1,-100,"{""FishSmall"":1,""FishBig"":0,""CanSmall"":2,""CanBig"":0,""Seaweed"":0}","{""FishSmall"":0,""FishBig"":1,""CanSmall"":2,""CanBig"":0,""Seaweed"":0}",-3.333333333,-10,1,1222.4295,1,2,2,2,2,2,2,2,2,2,2,2,2,2,100,21,0.970588235,0,-10
3714666,30,Male,1,Adults,4,1,trial_22,,0,1,,2669.63,1344.325,1894.47,"{""FishSmall"":3,""FishBig"":2,""CanSmall"":0,""CanBig"":0,""Seaweed"":1}","{""FishSmall"":1,""FishBig"":0,""CanSmall"":3,""CanBig"":0,""Seaweed"":2}",100,100,11.66666667,-3.333333333,13.33333333,-6.666666667,6.871842709,7.453559925,1,2,-15,0.581717216,1,0,"{""FishSmall"":2,""FishBig"":1,""CanSmall"":0,""CanBig"":0,""Seaweed"":0}","{""FishSmall"":1,""FishBig"":0,""CanSmall"":1,""CanBig"":1,""Seaweed"":0}",11.66666667,-6.666666667,1,1222.4295,1,2,2,2,2,2,2,2,2,2,2,2,2,2,100,22,0.970588235,20,0
3714666,30,Male,1,Adults,4,1,trial_23,,,,,2228.935,,,"{""FishSmall"":0,""FishBig"":6,""CanSmall"":0,""CanBig"":0,""Seaweed"":0}","{""FishSmall"":2,""FishBig"":1,""CanSmall"":1,""CanBig"":0,""Seaweed"":2}",0,50,20,5,20,6.666666667,0,9.574271078,0,2,-15,9.574271078,2,50,"{""FishSmall"":0,""FishBig"":3,""CanSmall"":0,""CanBig"":0,""Seaweed"":0}","{""FishSmall"":1,""FishBig"":1,""CanSmall"":1,""CanBig"":0,""Seaweed"":0}",20,6.666666667,1,1222.4295,1,2,2,2,2,2,2,2,2,2,2,2,2,2,100,23,0.970588235,0,-10
3714666,30,Male,1,Adults,4,1,trial_24,,1,0,,2323.02,2607.37,1390.845,"{""FishSmall"":0,""FishBig"":0,""CanSmall"":3,""CanBig"":1,""Seaweed"":2}","{""FishSmall"":2,""FishBig"":1,""CanSmall"":1,""CanBig"":0,""Seaweed"":2}",50,50,-8.333333333,5,-16.66666667,13.33333333,6.871842709,9.574271078,2,2,13.33333333,2.702428368,0,0,"{""FishSmall"":0,""FishBig"":0,""CanSmall"":1,""CanBig"":2,""Seaweed"":0}","{""FishSmall"":2,""FishBig"":1,""CanSmall"":0,""CanBig"":0,""Seaweed"":0}",-8.333333333,13.33333333,1,1222.4295,1,2,2,2,2,2,2,2,2,2,2,2,2,2,100,24,0.970588235,0,10
3714666,30,Male,1,Adults,4,1,trial_25,,,0,,2640.3,,1124.96,"{""FishSmall"":0,""FishBig"":0,""CanSmall"":4,""CanBig"":2,""Seaweed"":0}","{""FishSmall"":1,""FishBig"":3,""CanSmall"":0,""CanBig"":0,""Seaweed"":2}",50,100,-13.33333333,11.66666667,-13.33333333,16.66666667,4.714045208,8.975274679,0,2,25,4.261229471,2,50,"{""FishSmall"":0,""FishBig"":0,""CanSmall"":2,""CanBig"":1,""Seaweed"":0}","{""FishSmall"":1,""FishBig"":2,""CanSmall"":0,""CanBig"":0,""Seaweed"":0}",-13.33333333,16.66666667,1,1222.4295,1,2,2,2,2,2,2,2,2,2,2,2,2,2,100,25,0.970588235,0,20
3714666,30,Male,1,Adults,4,1,trial_26,,0,1,,1417.515,7859.42,1311.875,"{""FishSmall"":2,""FishBig"":1,""CanSmall"":1,""CanBig"":0,""Seaweed"":2}","{""FishSmall"":1,""FishBig"":0,""CanSmall"":1,""CanBig"":1,""Seaweed"":3}",50,100,5,-3.333333333,10,-6.666666667,9.574271078,9.428090416,2,3,-8.333333333,-0.146180662,1,50,"{""FishSmall"":3,""FishBig"":0,""CanSmall"":0,""CanBig"":0,""Seaweed"":0}","{""FishSmall"":1,""FishBig"":0,""CanSmall"":1,""CanBig"":1,""Seaweed"":0}",5,-6.666666667,1,1222.4295,1,2,2,2,2,2,2,2,2,2,2,2,2,2,100,26,0.970588235,10,0
3714666,30,Male,1,Adults,4,0,trial_27,,0,,,2590.81,919.625,,"{""FishSmall"":0,""FishBig"":0,""CanSmall"":1,""CanBig"":3,""Seaweed"":2}","{""FishSmall"":1,""FishBig"":4,""CanSmall"":0,""CanBig"":0,""Seaweed"":1}",100,0,-11.66666667,15,3.333333333,16.66666667,8.975274679,7.637626158,2,1,26.66666667,-1.33764852,-1,-100,"{""FishSmall"":1,""FishBig"":1,""CanSmall"":0,""CanBig"":1,""Seaweed"":0}","{""FishSmall"":1,""FishBig"":2,""CanSmall"":0,""CanBig"":0,""Seaweed"":0}",3.333333333,15,1,1222.4295,1,2,2,2,2,2,2,2,2,2,2,2,2,2,100,27,0.970588235,10,0
3714666,30,Male,1,Adults,4,1,trial_28,,,,,1350.81,,,"{""FishSmall"":1,""FishBig"":4,""CanSmall"":0,""CanBig"":0,""Seaweed"":1}","{""FishSmall"":0,""FishBig"":0,""CanSmall"":3,""CanBig"":0,""Seaweed"":3}",0,0,15,-5,20,-13.33333333,7.637626158,5,1,3,-20,-2.637626158,2,0,"{""FishSmall"":0,""FishBig"":3,""CanSmall"":0,""CanBig"":0,""Seaweed"":0}","{""FishSmall"":0,""FishBig"":0,""CanSmall"":2,""CanBig"":1,""Seaweed"":0}",15,-13.33333333,1,1222.4295,1,2,2,2,2,2,2,2,2,2,2,2,2,2,100,28,0.970588235,20,0
3714666,30,Male,1,Adults,4,0,trial_29,,1,,,7374.795,1764.825,,"{""FishSmall"":2,""FishBig"":1,""CanSmall"":1,""CanBig"":0,""Seaweed"":2}","{""FishSmall"":1,""FishBig"":0,""CanSmall"":1,""CanBig"":1,""Seaweed"":3}",50,50,5,-3.333333333,-3.333333333,-3.333333333,9.574271078,9.428090416,2,3,-8.333333333,-0.146180662,1,0,"{""FishSmall"":0,""FishBig"":1,""CanSmall"":1,""CanBig"":1,""Seaweed"":0}","{""FishSmall"":0,""FishBig"":1,""CanSmall"":1,""CanBig"":1,""Seaweed"":0}",-3.333333333,-3.333333333,1,1222.4295,1,2,2,2,2,2,2,2,2,2,2,2,2,2,100,29,0.970588235,0,20
3714666,30,Male,1,Adults,4,1,trial_30,,,0,,2988.5,,1719.015,"{""FishSmall"":2,""FishBig"":0,""CanSmall"":4,""CanBig"":0,""Seaweed"":0}","{""FishSmall"":2,""FishBig"":2,""CanSmall"":0,""CanBig"":0,""Seaweed"":2}",0,100,-3.333333333,10,-10,3.333333333,9.428090416,8.164965809,0,2,13.33333333,-1.263124607,2,100,"{""FishSmall"":0,""FishBig"":0,""CanSmall"":3,""CanBig"":0,""Seaweed"":0}","{""FishSmall"":1,""FishBig"":1,""CanSmall"":0,""CanBig"":1,""Seaweed"":0}",-3.333333333,3.333333333,1,1222.4295,1,2,2,2,2,2,2,2,2,2,2,2,2,2,100,30,0.970588235,0,10
3714639,31,Male,1,Adults,4,1,trial_1,,,1,,13254.26,,7935.675,"{""FishSmall"":1,""FishBig"":0,""CanSmall"":4,""CanBig"":0,""Seaweed"":1}","{""FishSmall"":0,""FishBig"":0,""CanSmall"":2,""CanBig"":2,""Seaweed"":2}",50,50,-5,-10,-3.333333333,-16.66666667,7.637626158,8.164965809,1,2,-5,0.527339651,1,0,"{""FishSmall"":1,""FishBig"":0,""CanSmall"":2,""CanBig"":0,""Seaweed"":0}","{""FishSmall"":0,""FishBig"":0,""CanSmall"":1,""CanBig"":2,""Seaweed"":0}",-5,-16.66666667,0.9,1155.7325,1,2,2,2,2,2,2,2,2,2,2,2,2,2,100,1,1,10,0
3714639,31,Male,1,Adults,4,1,trial_2,,,1,,6235.835,,7786.155,"{""FishSmall"":0,""FishBig"":0,""CanSmall"":2,""CanBig"":2,""Seaweed"":2}","{""FishSmall"":1,""FishBig"":0,""CanSmall"":2,""CanBig"":1,""Seaweed"":2}",0,100,-10,-5,-16.66666667,-16.66666667,8.164965809,9.574271078,2,2,5,1.409305268,0,100,"{""FishSmall"":0,""FishBig"":0,""CanSmall"":1,""CanBig"":2,""Seaweed"":0}","{""FishSmall"":0,""FishBig"":0,""CanSmall"":1,""CanBig"":2,""Seaweed"":0}",-10,-16.66666667,0.9,1155.7325,1,2,2,2,2,2,2,2,2,2,2,2,2,2,100,2,1,-20,0
3714639,31,Male,1,Adults,4,0,trial_3,,0,0,,7689.29,7422.51,8078.055,"{""FishSmall"":1,""FishBig"":0,""CanSmall"":3,""CanBig"":0,""Seaweed"":2}","{""FishSmall"":3,""FishBig"":1,""CanSmall"":1,""CanBig"":0,""Seaweed"":1}",100,50,-3.333333333,6.666666667,6.666666667,6.666666667,7.453559925,9.428090416,2,1,10,1.974530491,-1,-50,"{""FishSmall"":1,""FishBig"":1,""CanSmall"":1,""CanBig"":0,""Seaweed"":0}","{""FishSmall"":1,""FishBig"":1,""CanSmall"":1,""CanBig"":0,""Seaweed"":0}",6.666666667,6.666666667,0.9,1155.7325,1,2,2,2,2,2,2,2,2,2,2,2,2,2,100,3,1,-10,20
3714639,31,Male,1,Adults,4,0,trial_4,,0,1,,9568.335,10371.825,6954.265,"{""FishSmall"":1,""FishBig"":2,""CanSmall"":0,""CanBig"":0,""Seaweed"":3}","{""FishSmall"":0,""FishBig"":0,""CanSmall"":0,""CanBig"":4,""Seaweed"":2}",100,100,8.333333333,-13.33333333,13.33333333,-20,8.975274679,9.428090416,3,2,-21.66666667,0.452815737,-1,0,"{""FishSmall"":2,""FishBig"":1,""CanSmall"":0,""CanBig"":0,""Seaweed"":0}","{""FishSmall"":0,""FishBig"":0,""CanSmall"":0,""CanBig"":3,""Seaweed"":0}",13.33333333,-13.33333333,0.9,1155.7325,1,2,2,2,2,2,2,2,2,2,2,2,2,2,100,4,1,20,0
3714639,31,Male,1,Adults,4,0,trial_5,,0,,,5682.245,2469.67,,"{""FishSmall"":2,""FishBig"":0,""CanSmall"":2,""CanBig"":0,""Seaweed"":2}","{""FishSmall"":2,""FishBig"":3,""CanSmall"":0,""CanBig"":0,""Seaweed"":1}",100,50,0,13.33333333,3.333333333,13.33333333,8.164965809,7.453559925,2,1,13.33333333,-0.711405884,-1,-50,"{""FishSmall"":2,""FishBig"":0,""CanSmall"":1,""CanBig"":0,""Seaweed"":0}","{""FishSmall"":2,""FishBig"":1,""CanSmall"":0,""CanBig"":0,""Seaweed"":0}",3.333333333,13.33333333,0.9,1155.7325,1,2,2,2,2,2,2,2,2,2,2,2,2,2,100,5,1,10,10
3714639,31,Male,1,Adults,4,0,trial_6,,,,,4015.865,,,"{""FishSmall"":2,""FishBig"":2,""CanSmall"":0,""CanBig"":0,""Seaweed"":2}","{""FishSmall"":0,""FishBig"":0,""CanSmall"":3,""CanBig"":2,""Seaweed"":1}",0,0,10,-11.66666667,13.33333333,-13.33333333,8.164965809,6.871842709,2,1,-21.66666667,-1.2931231,-1,0,"{""FishSmall"":2,""FishBig"":1,""CanSmall"":0,""CanBig"":0,""Seaweed"":0}","{""FishSmall"":0,""FishBig"":0,""CanSmall"":2,""CanBig"":1,""Seaweed"":0}",13.33333333,-11.66666667,0.9,1155.7325,1,2,2,2,2,2,2,2,2,2,2,2,2,2,100,6,1,20,0
3714639,31,Male,1,Adults,4,1,trial_7,,,1,,4449.545,,1477.86,"{""FishSmall"":2,""FishBig"":1,""CanSmall"":0,""CanBig"":0,""Seaweed"":3}","{""FishSmall"":1,""FishBig"":0,""CanSmall"":2,""CanBig"":1,""Seaweed"":2}",0,100,6.666666667,-5,6.666666667,-6.666666667,7.453559925,9.574271078,3,2,-11.66666667,2.120711153,-1,100,"{""FishSmall"":1,""FishBig"":1,""CanSmall"":1,""CanBig"":0,""Seaweed"":0}","{""FishSmall"":1,""FishBig"":0,""CanSmall"":1,""CanBig"":1,""Seaweed"":0}",6.666666667,-6.666666667,0.9,1155.7325,1,2,2,2,2,2,2,2,2,2,2,2,2,2,100,7,1,0,0
3714639,31,Male,1,Adults,4,1,trial_8,,,,,2795.4,,,"{""FishSmall"":1,""FishBig"":0,""CanSmall"":2,""CanBig"":1,""Seaweed"":2}","{""FishSmall"":1,""FishBig"":0,""CanSmall"":2,""CanBig"":1,""Seaweed"":2}",0,50,-5,-5,-6.666666667,3.333333333,9.574271078,9.574271078,2,2,0,0,0,50,"{""FishSmall"":1,""FishBig"":0,""CanSmall"":1,""CanBig"":1,""Seaweed"":0}","{""FishSmall"":2,""FishBig"":0,""CanSmall"":1,""CanBig"":0,""Seaweed"":0}",-5,3.333333333,0.9,1155.7325,1,2,2,2,2,2,2,2,2,2,2,2,2,2,100,8,1,0,10
3714639,31,Male,1,Adults,4,0,trial_9,,0,,,3166.48,1437.39,,"{""FishSmall"":2,""FishBig"":2,""CanSmall"":0,""CanBig"":0,""Seaweed"":2}","{""FishSmall"":2,""FishBig"":1,""CanSmall"":1,""CanBig"":0,""Seaweed"":2}",100,0,10,5,0,10,8.164965809,9.574271078,2,2,-5,1.409305268,0,-100,"{""FishSmall"":2,""FishBig"":0,""CanSmall"":0,""CanBig"":1,""Seaweed"":0}","{""FishSmall"":3,""FishBig"":0,""CanSmall"":0,""CanBig"":0,""Seaweed"":0}",0,5,0.9,1155.7325,1,2,2,2,2,2,2,2,2,2,2,2,2,2,100,9,1,10,0
3714639,31,Male,1,Adults,4,1,trial_10,,,,,5400.335,,,"{""FishSmall"":4,""FishBig"":1,""CanSmall"":0,""CanBig"":0,""Seaweed"":1}","{""FishSmall"":0,""FishBig"":0,""CanSmall"":2,""CanBig"":3,""Seaweed"":1}",0,0,10,-13.33333333,13.33333333,-16.66666667,5.773502692,7.453559925,1,1,-23.33333333,1.680057233,0,0,"{""FishSmall"":2,""FishBig"":1,""CanSmall"":0,""CanBig"":0,""Seaweed"":0}","{""FishSmall"":0,""FishBig"":0,""CanSmall"":1,""CanBig"":2,""Seaweed"":0}",10,-16.66666667,0.9,1155.7325,1,2,2,2,2,2,2,2,2,2,2,2,2,2,100,10,1,20,-20
3714639,31,Male,1,Adults,4,,catch_1,0,,,7844.795,,,,"{""FishSmall"":4,""FishBig"":2,""CanSmall"":0,""CanBig"":0,""Seaweed"":0}","{""FishSmall"":4,""FishBig"":2,""CanSmall"":0,""CanBig"":0,""Seaweed"":0}",0,0,,,,,,,,,,,,,"{""FishSmall"":2,""FishBig"":1,""CanSmall"":0,""CanBig"":0,""Seaweed"":0}","{""FishSmall"":3,""FishBig"":0,""CanSmall"":0,""CanBig"":0,""Seaweed"":0}",,,0.9,1155.7325,1,2,2,2,2,2,2,2,2,2,2,2,2,2,100,,1,,
3714639,31,Male,1,Adults,4,1,trial_11,,0,0,,5360.765,3082.975,1680.53,"{""FishSmall"":1,""FishBig"":3,""CanSmall"":0,""CanBig"":0,""Seaweed"":2}","{""FishSmall"":1,""FishBig"":0,""CanSmall"":1,""CanBig"":1,""Seaweed"":3}",100,100,11.66666667,-3.333333333,20,3.333333333,8.975274679,9.428090416,2,3,-15,0.452815737,1,0,"{""FishSmall"":0,""FishBig"":3,""CanSmall"":0,""CanBig"":0,""Seaweed"":0}","{""FishSmall"":2,""FishBig"":0,""CanSmall"":1,""CanBig"":0,""Seaweed"":0}",11.66666667,3.333333333,0.9,1155.7325,1,2,2,2,2,2,2,2,2,2,2,2,2,2,100,11,1,20,10
3714639,31,Male,1,Adults,4,1,trial_12,,0,1,,8599.965,2992.18,2615.225,"{""FishSmall"":4,""FishBig"":2,""CanSmall"":0,""CanBig"":0,""Seaweed"":0}","{""FishSmall"":0,""FishBig"":0,""CanSmall"":1,""CanBig"":2,""Seaweed"":3}",100,100,13.33333333,-8.333333333,16.66666667,-3.333333333,4.714045208,8.975274679,0,3,-21.66666667,4.261229471,3,0,"{""FishSmall"":1,""FishBig"":2,""CanSmall"":0,""CanBig"":0,""Seaweed"":0}","{""FishSmall"":0,""FishBig"":1,""CanSmall"":1,""CanBig"":1,""Seaweed"":0}",13.33333333,-3.333333333,0.9,1155.7325,1,2,2,2,2,2,2,2,2,2,2,2,2,2,100,12,1,20,0
3714639,31,Male,1,Adults,4,0,trial_13,,1,0,,4605.585,2981.65,3587.435,"{""FishSmall"":0,""FishBig"":0,""CanSmall"":0,""CanBig"":4,""Seaweed"":2}","{""FishSmall"":2,""FishBig"":2,""CanSmall"":0,""CanBig"":0,""Seaweed"":2}",100,50,-13.33333333,10,-16.66666667,10,9.428090416,8.164965809,2,2,23.33333333,-1.263124607,0,-50,"{""FishSmall"":0,""FishBig"":0,""CanSmall"":1,""CanBig"":2,""Seaweed"":0}","{""FishSmall"":3,""FishBig"":0,""CanSmall"":0,""CanBig"":0,""Seaweed"":0}",-16.66666667,10,0.9,1155.7325,1,2,2,2,2,2,2,2,2,2,2,2,2,2,100,13,1,0,10
3714639,31,Male,1,Adults,4,1,trial_14,,,0,,2690.38,,3328.535,"{""FishSmall"":1,""FishBig"":0,""CanSmall"":1,""CanBig"":1,""Seaweed"":3}","{""FishSmall"":2,""FishBig"":1,""CanSmall"":1,""CanBig"":0,""Seaweed"":2}",0,50,-3.333333333,5,3.333333333,13.33333333,9.428090416,9.574271078,3,2,8.333333333,0.146180662,-1,50,"{""FishSmall"":1,""FishBig"":1,""CanSmall"":0,""CanBig"":1,""Seaweed"":0}","{""FishSmall"":2,""FishBig"":1,""CanSmall"":0,""CanBig"":0,""Seaweed"":0}",-3.333333333,13.33333333,0.9,1155.7325,1,2,2,2,2,2,2,2,2,2,2,2,2,2,100,14,1,20,10
3714639,31,Male,1,Adults,4,0,trial_15,,1,,,2846.335,2319.655,,"{""FishSmall"":1,""FishBig"":1,""CanSmall"":1,""CanBig"":0,""Seaweed"":3}","{""FishSmall"":2,""FishBig"":0,""CanSmall"":2,""CanBig"":0,""Seaweed"":2}",100,50,3.333333333,0,-6.666666667,3.333333333,9.428090416,8.164965809,3,2,-3.333333333,-1.263124607,-1,-50,"{""FishSmall"":1,""FishBig"":0,""CanSmall"":1,""CanBig"":1,""Seaweed"":0}","{""FishSmall"":2,""FishBig"":0,""CanSmall"":1,""CanBig"":0,""Seaweed"":0}",-6.666666667,0,0.9,1155.7325,1,2,2,2,2,2,2,2,2,2,2,2,2,2,100,15,1,0,10
3714639,31,Male,1,Adults,4,0,trial_16,,0,,,4754.485,1041.43,,"{""FishSmall"":3,""FishBig"":0,""CanSmall"":1,""CanBig"":0,""Seaweed"":2}","{""FishSmall"":1,""FishBig"":1,""CanSmall"":1,""CanBig"":0,""Seaweed"":3}",50,50,3.333333333,3.333333333,3.333333333,6.666666667,7.453559925,9.428090416,2,3,0,1.974530491,1,0,"{""FishSmall"":2,""FishBig"":0,""CanSmall"":1,""CanBig"":0,""Seaweed"":0}","{""FishSmall"":1,""FishBig"":1,""CanSmall"":1,""CanBig"":0,""Seaweed"":0}",3.333333333,3.333333333,0.9,1155.7325,1,2,2,2,2,2,2,2,2,2,2,2,2,2,100,16,1,10,0
3714639,31,Male,1,Adults,4,1,trial_17,,,,,1800.69,,,"{""FishSmall"":0,""FishBig"":0,""CanSmall"":1,""CanBig"":3,""Seaweed"":2}","{""FishSmall"":2,""FishBig"":0,""CanSmall"":2,""CanBig"":0,""Seaweed"":2}",0,50,-11.66666667,0,-16.66666667,6.666666667,8.975274679,8.164965809,2,2,11.66666667,-0.810308869,0,50,"{""FishSmall"":0,""FishBig"":0,""CanSmall"":1,""CanBig"":2,""Seaweed"":0}","{""FishSmall"":1,""FishBig"":1,""CanSmall"":1,""CanBig"":0,""Seaweed"":0}",-11.66666667,6.666666667,0.9,1155.7325,1,2,2,2,2,2,2,2,2,2,2,2,2,2,100,17,1,-20,20
3714639,31,Male,1,Adults,4,0,trial_18,,,1,,2700.875,,1976.345,"{""FishSmall"":2,""FishBig"":0,""CanSmall"":2,""CanBig"":0,""Seaweed"":2}","{""FishSmall"":0,""FishBig"":0,""CanSmall"":3,""CanBig"":3,""Seaweed"":0}",0,100,0,-15,3.333333333,-13.33333333,8.164965809,5,2,0,-15,-3.164965809,-2,100,"{""FishSmall"":2,""FishBig"":0,""CanSmall"":1,""CanBig"":0,""Seaweed"":0}","{""FishSmall"":0,""FishBig"":0,""CanSmall"":2,""CanBig"":1,""Seaweed"":0}",3.333333333,-15,0.9,1155.7325,1,2,2,2,2,2,2,2,2,2,2,2,2,2,100,18,1,-10,0
3714639,31,Male,1,Adults,4,1,trial_19,,,,,5057.635,,,"{""FishSmall"":0,""FishBig"":0,""CanSmall"":2,""CanBig"":2,""Seaweed"":2}","{""FishSmall"":2,""FishBig"":1,""CanSmall"":1,""CanBig"":0,""Seaweed"":2}",50,0,-10,5,-3.333333333,6.666666667,8.164965809,9.574271078,2,2,15,1.409305268,0,-50,"{""FishSmall"":0,""FishBig"":1,""CanSmall"":1,""CanBig"":1,""Seaweed"":0}","{""FishSmall"":1,""FishBig"":1,""CanSmall"":1,""CanBig"":0,""Seaweed"":0}",-10,6.666666667,0.9,1155.7325,1,2,2,2,2,2,2,2,2,2,2,2,2,2,100,19,1,20,20
3714639,31,Male,1,Adults,4,1,trial_20,,0,1,,2630.93,3556.18,2798.88,"{""FishSmall"":1,""FishBig"":3,""CanSmall"":0,""CanBig"":0,""Seaweed"":2}","{""FishSmall"":2,""FishBig"":0,""CanSmall"":1,""CanBig"":0,""Seaweed"":3}",50,50,11.66666667,1.666666667,16.66666667,0,8.975274679,6.871842709,2,3,-10,-2.103431969,1,0,"{""FishSmall"":1,""FishBig"":2,""CanSmall"":0,""CanBig"":0,""Seaweed"":0}","{""FishSmall"":2,""FishBig"":0,""CanSmall"":0,""CanBig"":1,""Seaweed"":0}",11.66666667,0,0.9,1155.7325,1,2,2,2,2,2,2,2,2,2,2,2,2,2,100,20,1,20,0
3714639,31,Male,1,Adults,4,,catch_2,1,,,2872.05,,,,"{""FishSmall"":0,""FishBig"":0,""CanSmall"":3,""CanBig"":3,""Seaweed"":0}","{""FishSmall"":0,""FishBig"":0,""CanSmall"":3,""CanBig"":3,""Seaweed"":0}",0,0,,,,,,,,,,,,,"{""FishSmall"":0,""FishBig"":0,""CanSmall"":3,""CanBig"":0,""Seaweed"":0}","{""FishSmall"":0,""FishBig"":0,""CanSmall"":1,""CanBig"":2,""Seaweed"":0}",,,0.9,1155.7325,1,2,2,2,2,2,2,2,2,2,2,2,2,2,100,,1,,
3714639,31,Male,1,Adults,4,0,trial_21,,1,,,4122.15,1849.56,,"{""FishSmall"":0,""FishBig"":0,""CanSmall"":3,""CanBig"":1,""Seaweed"":2}","{""FishSmall"":1,""FishBig"":0,""CanSmall"":2,""CanBig"":1,""Seaweed"":2}",100,0,-8.333333333,-5,-6.666666667,-6.666666667,6.871842709,9.574271078,2,2,3.333333333,2.702428368,0,-100,"{""FishSmall"":1,""FishBig"":0,""CanSmall"":1,""CanBig"":1,""Seaweed"":0}","{""FishSmall"":1,""FishBig"":0,""CanSmall"":1,""CanBig"":1,""Seaweed"":0}",-6.666666667,-5,0.9,1155.7325,1,2,2,2,2,2,2,2,2,2,2,2,2,2,100,21,1,0,-20
3714639,31,Male,1,Adults,4,0,trial_22,,,,,1736.335,,,"{""FishSmall"":1,""FishBig"":1,""CanSmall"":1,""CanBig"":0,""Seaweed"":3}","{""FishSmall"":1,""FishBig"":0,""CanSmall"":2,""CanBig"":1,""Seaweed"":2}",50,0,3.333333333,-5,6.666666667,-3.333333333,9.428090416,9.574271078,3,2,-8.333333333,0.146180662,-1,-50,"{""FishSmall"":1,""FishBig"":1,""CanSmall"":1,""CanBig"":0,""Seaweed"":0}","{""FishSmall"":0,""FishBig"":1,""CanSmall"":1,""CanBig"":1,""Seaweed"":0}",6.666666667,-5,0.9,1155.7325,1,2,2,2,2,2,2,2,2,2,2,2,2,2,100,22,1,10,20
3714639,31,Male,1,Adults,4,1,trial_23,,,0,,2124.005,,1698.515,"{""FishSmall"":4,""FishBig"":1,""CanSmall"":0,""CanBig"":0,""Seaweed"":1}","{""FishSmall"":3,""FishBig"":1,""CanSmall"":1,""CanBig"":0,""Seaweed"":1}",0,100,10,6.666666667,0,6.666666667,5.773502692,9.428090416,1,1,-3.333333333,3.654587724,0,100,"{""FishSmall"":2,""FishBig"":0,""CanSmall"":0,""CanBig"":1,""Seaweed"":0}","{""FishSmall"":1,""FishBig"":1,""CanSmall"":1,""CanBig"":0,""Seaweed"":0}",10,6.666666667,0.9,1155.7325,1,2,2,2,2,2,2,2,2,2,2,2,2,2,100,23,1,10,10
3714639,31,Male,1,Adults,4,0,trial_24,,0,0,,1998.795,2263.02,3404.34,"{""FishSmall"":2,""FishBig"":0,""CanSmall"":2,""CanBig"":0,""Seaweed"":2}","{""FishSmall"":3,""FishBig"":0,""CanSmall"":0,""CanBig"":0,""Seaweed"":3}",100,50,0,5,3.333333333,6.666666667,8.164965809,5,2,3,5,-3.164965809,1,-50,"{""FishSmall"":2,""FishBig"":0,""CanSmall"":1,""CanBig"":0,""Seaweed"":0}","{""FishSmall"":1,""FishBig"":1,""CanSmall"":1,""CanBig"":0,""Seaweed"":0}",3.333333333,5,0.9,1155.7325,1,2,2,2,2,2,2,2,2,2,2,2,2,2,100,24,1,10,20
3714639,31,Male,1,Adults,4,1,trial_25,,,0,,856.91,,2292.845,"{""FishSmall"":4,""FishBig"":0,""CanSmall"":1,""CanBig"":0,""Seaweed"":1}","{""FishSmall"":3,""FishBig"":0,""CanSmall"":1,""CanBig"":0,""Seaweed"":2}",0,100,5,3.333333333,3.333333333,6.666666667,7.637626158,7.453559925,1,2,-1.666666667,-0.184066233,1,100,"{""FishSmall"":2,""FishBig"":0,""CanSmall"":1,""CanBig"":0,""Seaweed"":0}","{""FishSmall"":1,""FishBig"":1,""CanSmall"":1,""CanBig"":0,""Seaweed"":0}",5,6.666666667,0.9,1155.7325,1,2,2,2,2,2,2,2,2,2,2,2,2,2,100,25,1,0,-10
3714639,31,Male,1,Adults,4,1,trial_26,,,,,1575.82,,,"{""FishSmall"":1,""FishBig"":0,""CanSmall"":3,""CanBig"":0,""Seaweed"":2}","{""FishSmall"":1,""FishBig"":1,""CanSmall"":1,""CanBig"":0,""Seaweed"":3}",0,50,-3.333333333,3.333333333,0,-6.666666667,7.453559925,9.428090416,2,3,6.666666667,1.974530491,1,50,"{""FishSmall"":0,""FishBig"":1,""CanSmall"":2,""CanBig"":0,""Seaweed"":0}","{""FishSmall"":0,""FishBig"":1,""CanSmall"":0,""CanBig"":2,""Seaweed"":0}",-3.333333333,-6.666666667,0.9,1155.7325,1,2,2,2,2,2,2,2,2,2,2,2,2,2,100,26,1,20,-20
3714639,31,Male,1,Adults,4,1,trial_27,,,,,1019.135,,,"{""FishSmall"":1,""FishBig"":0,""CanSmall"":1,""CanBig"":1,""Seaweed"":3}","{""FishSmall"":3,""FishBig"":0,""CanSmall"":1,""CanBig"":0,""Seaweed"":2}",50,50,-3.333333333,3.333333333,-6.666666667,3.333333333,9.428090416,7.453559925,3,2,6.666666667,-1.974530491,-1,0,"{""FishSmall"":1,""FishBig"":0,""CanSmall"":1,""CanBig"":1,""Seaweed"":0}","{""FishSmall"":2,""FishBig"":0,""CanSmall"":1,""CanBig"":0,""Seaweed"":0}",-3.333333333,3.333333333,0.9,1155.7325,1,2,2,2,2,2,2,2,2,2,2,2,2,2,100,27,1,0,10
3714639,31,Male,1,Adults,4,0,trial_28,,,1,,2314.82,,2591.395,"{""FishSmall"":1,""FishBig"":0,""CanSmall"":3,""CanBig"":1,""Seaweed"":1}","{""FishSmall"":0,""FishBig"":0,""CanSmall"":4,""CanBig"":1,""Seaweed"":1}",0,100,-6.666666667,-10,-6.666666667,-3.333333333,9.428090416,5.773502692,1,1,-3.333333333,-3.654587724,0,100,"{""FishSmall"":1,""FishBig"":0,""CanSmall"":1,""CanBig"":1,""Seaweed"":0}","{""FishSmall"":1,""FishBig"":0,""CanSmall"":2,""CanBig"":0,""Seaweed"":0}",-6.666666667,-10,0.9,1155.7325,1,2,2,2,2,2,2,2,2,2,2,2,2,2,100,28,1,0,0
3714639,31,Male,1,Adults,4,1,trial_29,,1,1,,1147.515,2975.45,1953.115,"{""FishSmall"":0,""FishBig"":0,""CanSmall"":3,""CanBig"":2,""Seaweed"":1}","{""FishSmall"":1,""FishBig"":0,""CanSmall"":3,""CanBig"":0,""Seaweed"":2}",50,100,-11.66666667,-3.333333333,-16.66666667,-3.333333333,6.871842709,7.453559925,1,2,8.333333333,0.581717216,1,50,"{""FishSmall"":0,""FishBig"":0,""CanSmall"":1,""CanBig"":2,""Seaweed"":0}","{""FishSmall"":1,""FishBig"":0,""CanSmall"":2,""CanBig"":0,""Seaweed"":0}",-11.66666667,-3.333333333,0.9,1155.7325,1,2,2,2,2,2,2,2,2,2,2,2,2,2,100,29,1,0,0
3714639,31,Male,1,Adults,4,0,trial_30,,,,,2911.945,,,"{""FishSmall"":3,""FishBig"":1,""CanSmall"":1,""CanBig"":0,""Seaweed"":1}","{""FishSmall"":4,""FishBig"":1,""CanSmall"":0,""CanBig"":0,""Seaweed"":1}",50,50,6.666666667,10,3.333333333,10,9.428090416,5.773502692,1,1,3.333333333,-3.654587724,0,0,"{""FishSmall"":1,""FishBig"":1,""CanSmall"":0,""CanBig"":1,""Seaweed"":0}","{""FishSmall"":3,""FishBig"":0,""CanSmall"":0,""CanBig"":0,""Seaweed"":0}",3.333333333,10,0.9,1155.7325,1,2,2,2,2,2,2,2,2,2,2,2,2,2,100,30,1,10,10
3714643,24,Female,2,Adults,4,1,trial_1,,,0,,4271.245,,1534.45,"{""FishSmall"":2,""FishBig"":3,""CanSmall"":0,""CanBig"":0,""Seaweed"":1}","{""FishSmall"":3,""FishBig"":1,""CanSmall"":0,""CanBig"":0,""Seaweed"":2}",0,100,13.33333333,8.333333333,3.333333333,13.33333333,7.453559925,6.871842709,1,2,-5,-0.581717216,1,100,"{""FishSmall"":2,""FishBig"":0,""CanSmall"":1,""CanBig"":0,""Seaweed"":0}","{""FishSmall"":2,""FishBig"":1,""CanSmall"":0,""CanBig"":0,""Seaweed"":0}",13.33333333,13.33333333,1,767.327,1,2,2,2,2,2,2,2,2,2,2,2,2,2,100,1,0.964285714,10,10
3714643,24,Female,2,Adults,4,0,trial_2,,,,,3415.295,,,"{""FishSmall"":3,""FishBig"":0,""CanSmall"":1,""CanBig"":0,""Seaweed"":2}","{""FishSmall"":3,""FishBig"":0,""CanSmall"":0,""CanBig"":0,""Seaweed"":3}",50,50,3.333333333,5,3.333333333,10,7.453559925,5,2,3,1.666666667,-2.453559925,1,0,"{""FishSmall"":2,""FishBig"":0,""CanSmall"":1,""CanBig"":0,""Seaweed"":0}","{""FishSmall"":3,""FishBig"":0,""CanSmall"":0,""CanBig"":0,""Seaweed"":0}",3.333333333,5,1,767.327,1,2,2,2,2,2,2,2,2,2,2,2,2,2,100,2,0.964285714,10,0
3714643,24,Female,2,Adults,4,0,trial_3,,1,1,,1428.915,1528.585,3145.49,"{""FishSmall"":2,""FishBig"":0,""CanSmall"":2,""CanBig"":0,""Seaweed"":2}","{""FishSmall"":0,""FishBig"":0,""CanSmall"":3,""CanBig"":2,""Seaweed"":1}",100,100,0,-11.66666667,-3.333333333,-16.66666667,8.164965809,6.871842709,2,1,-11.66666667,-1.2931231,-1,0,"{""FishSmall"":1,""FishBig"":0,""CanSmall"":2,""CanBig"":0,""Seaweed"":0}","{""FishSmall"":0,""FishBig"":0,""CanSmall"":1,""CanBig"":2,""Seaweed"":0}",-3.333333333,-11.66666667,1,767.327,1,2,2,2,2,2,2,2,2,2,2,2,2,2,100,3,0.964285714,0,0
3714643,24,Female,2,Adults,4,0,trial_4,,,,,1175.37,,,"{""FishSmall"":1,""FishBig"":0,""CanSmall"":2,""CanBig"":1,""Seaweed"":2}","{""FishSmall"":0,""FishBig"":0,""CanSmall"":2,""CanBig"":2,""Seaweed"":2}",0,0,-5,-10,-6.666666667,-13.33333333,9.574271078,8.164965809,2,2,-5,-1.409305268,0,0,"{""FishSmall"":1,""FishBig"":0,""CanSmall"":1,""CanBig"":1,""Seaweed"":0}","{""FishSmall"":0,""FishBig"":0,""CanSmall"":2,""CanBig"":1,""Seaweed"":0}",-6.666666667,-10,1,767.327,1,2,2,2,2,2,2,2,2,2,2,2,2,2,100,4,0.964285714,0,0
3714643,24,Female,2,Adults,4,0,trial_5,,,0,,1477.31,,1325.635,"{""FishSmall"":1,""FishBig"":1,""CanSmall"":1,""CanBig"":0,""Seaweed"":3}","{""FishSmall"":5,""FishBig"":1,""CanSmall"":0,""CanBig"":0,""Seaweed"":0}",0,100,3.333333333,11.66666667,0,13.33333333,9.428090416,3.726779962,3,0,8.333333333,-5.701310453,-3,100,"{""FishSmall"":0,""FishBig"":1,""CanSmall"":2,""CanBig"":0,""Seaweed"":0}","{""FishSmall"":2,""FishBig"":1,""CanSmall"":0,""CanBig"":0,""Seaweed"":0}",0,11.66666667,1,767.327,1,2,2,2,2,2,2,2,2,2,2,2,2,2,100,5,0.964285714,0,10
3714643,24,Female,2,Adults,4,1,trial_6,,,0,,3077.555,,1331.25,"{""FishSmall"":1,""FishBig"":0,""CanSmall"":4,""CanBig"":1,""Seaweed"":0}","{""FishSmall"":2,""FishBig"":3,""CanSmall"":0,""CanBig"":0,""Seaweed"":1}",0,50,-8.333333333,13.33333333,-10,16.66666667,8.975274679,7.453559925,0,1,21.66666667,-1.521714754,1,50,"{""FishSmall"":0,""FishBig"":0,""CanSmall"":3,""CanBig"":0,""Seaweed"":0}","{""FishSmall"":1,""FishBig"":2,""CanSmall"":0,""CanBig"":0,""Seaweed"":0}",-8.333333333,16.66666667,1,767.327,1,2,2,2,2,2,2,2,2,2,2,2,2,2,100,6,0.964285714,-10,20
3714643,24,Female,2,Adults,4,1,trial_7,,,,,3834.575,,,"{""FishSmall"":1,""FishBig"":0,""CanSmall"":3,""CanBig"":1,""Seaweed"":1}","{""FishSmall"":1,""FishBig"":0,""CanSmall"":3,""CanBig"":0,""Seaweed"":2}",50,0,-6.666666667,-3.333333333,-6.666666667,-10,9.428090416,7.453559925,1,2,3.333333333,-1.974530491,1,-50,"{""FishSmall"":1,""FishBig"":0,""CanSmall"":1,""CanBig"":1,""Seaweed"":0}","{""FishSmall"":1,""FishBig"":0,""CanSmall"":0,""CanBig"":2,""Seaweed"":0}",-6.666666667,-10,1,767.327,1,2,2,2,2,2,2,2,2,2,2,2,2,2,100,7,0.964285714,-20,10
3714643,24,Female,2,Adults,4,1,trial_8,,,,,5856.785,,,"{""FishSmall"":1,""FishBig"":0,""CanSmall"":3,""CanBig"":1,""Seaweed"":1}","{""FishSmall"":2,""FishBig"":0,""CanSmall"":3,""CanBig"":0,""Seaweed"":1}",0,50,-6.666666667,-1.666666667,-6.666666667,6.666666667,9.428090416,8.975274679,1,1,5,-0.452815737,0,50,"{""FishSmall"":1,""FishBig"":0,""CanSmall"":1,""CanBig"":1,""Seaweed"":0}","{""FishSmall"":1,""FishBig"":1,""CanSmall"":1,""CanBig"":0,""Seaweed"":0}",-6.666666667,6.666666667,1,767.327,1,2,2,2,2,2,2,2,2,2,2,2,2,2,100,8,0.964285714,10,20
3714643,24,Female,2,Adults,4,0,trial_9,,1,,,3004.715,1273.445,,"{""FishSmall"":3,""FishBig"":1,""CanSmall"":1,""CanBig"":0,""Seaweed"":1}","{""FishSmall"":1,""FishBig"":3,""CanSmall"":0,""CanBig"":0,""Seaweed"":2}",100,0,6.666666667,11.66666667,6.666666667,-3.333333333,9.428090416,8.975274679,1,2,5,-0.452815737,1,-100,"{""FishSmall"":1,""FishBig"":1,""CanSmall"":1,""CanBig"":0,""Seaweed"":0}","{""FishSmall"":1,""FishBig"":0,""CanSmall"":2,""CanBig"":0,""Seaweed"":0}",6.666666667,11.66666667,1,767.327,1,2,2,2,2,2,2,2,2,2,2,2,2,2,100,9,0.964285714,0,-10
3714643,24,Female,2,Adults,4,1,trial_10,,,,,6666.88,,,"{""FishSmall"":1,""FishBig"":0,""CanSmall"":2,""CanBig"":1,""Seaweed"":2}","{""FishSmall"":0,""FishBig"":1,""CanSmall"":0,""CanBig"":1,""Seaweed"":4}",50,0,-5,0,-13.33333333,-16.66666667,9.574271078,11.54700538,2,4,5,1.972734306,2,-50,"{""FishSmall"":0,""FishBig"":0,""CanSmall"":2,""CanBig"":1,""Seaweed"":0}","{""FishSmall"":0,""FishBig"":0,""CanSmall"":1,""CanBig"":2,""Seaweed"":0}",-5,-16.66666667,1,767.327,1,2,2,2,2,2,2,2,2,2,2,2,2,2,100,10,0.964285714,-10,0
3714643,24,Female,2,Adults,4,,catch_1,0,,,4663.215,,,,"{""FishSmall"":4,""FishBig"":2,""CanSmall"":0,""CanBig"":0,""Seaweed"":0}","{""FishSmall"":4,""FishBig"":2,""CanSmall"":0,""CanBig"":0,""Seaweed"":0}",0,0,,,,,,,,,,,,,"{""FishSmall"":2,""FishBig"":1,""CanSmall"":0,""CanBig"":0,""Seaweed"":0}","{""FishSmall"":1,""FishBig"":2,""CanSmall"":0,""CanBig"":0,""Seaweed"":0}",,,1,767.327,1,2,2,2,2,2,2,2,2,2,2,2,2,2,100,,0.964285714,,
3714643,24,Female,2,Adults,4,0,trial_11,,0,1,,1563.995,1317.035,1612.135,"{""FishSmall"":3,""FishBig"":1,""CanSmall"":1,""CanBig"":0,""Seaweed"":1}","{""FishSmall"":0,""FishBig"":0,""CanSmall"":2,""CanBig"":3,""Seaweed"":1}",100,100,6.666666667,-13.33333333,13.33333333,-10,9.428090416,7.453559925,1,1,-20,-1.974530491,0,0,"{""FishSmall"":2,""FishBig"":1,""CanSmall"":0,""CanBig"":0,""Seaweed"":0}","{""FishSmall"":1,""FishBig"":0,""CanSmall"":0,""CanBig"":2,""Seaweed"":0}",13.33333333,-13.33333333,1,767.327,1,2,2,2,2,2,2,2,2,2,2,2,2,2,100,11,0.964285714,20,0
3714643,24,Female,2,Adults,4,1,trial_12,,,,,3996.55,,,"{""FishSmall"":0,""FishBig"":0,""CanSmall"":2,""CanBig"":2,""Seaweed"":2}","{""FishSmall"":1,""FishBig"":0,""CanSmall"":1,""CanBig"":1,""Seaweed"":3}",0,50,-10,-3.333333333,-13.33333333,-6.666666667,8.164965809,9.428090416,2,3,6.666666667,1.263124607,1,50,"{""FishSmall"":0,""FishBig"":0,""CanSmall"":2,""CanBig"":1,""Seaweed"":0}","{""FishSmall"":1,""FishBig"":0,""CanSmall"":1,""CanBig"":1,""Seaweed"":0}",-10,-6.666666667,1,767.327,1,2,2,2,2,2,2,2,2,2,2,2,2,2,100,12,0.964285714,0,-10
3714643,24,Female,2,Adults,4,1,trial_13,,1,1,,7002.13,1509.11,2576.385,"{""FishSmall"":1,""FishBig"":0,""CanSmall"":3,""CanBig"":1,""Seaweed"":1}","{""FishSmall"":1,""FishBig"":0,""CanSmall"":1,""CanBig"":1,""Seaweed"":3}",100,50,-6.666666667,-3.333333333,0,-6.666666667,9.428090416,9.428090416,1,3,3.333333333,1.78E-15,2,-50,"{""FishSmall"":2,""FishBig"":0,""CanSmall"":0,""CanBig"":1,""Seaweed"":0}","{""FishSmall"":1,""FishBig"":0,""CanSmall"":1,""CanBig"":1,""Seaweed"":0}",-6.666666667,-6.666666667,1,767.327,1,2,2,2,2,2,2,2,2,2,2,2,2,2,100,13,0.964285714,0,0
3714643,24,Female,2,Adults,4,0,trial_14,,0,1,,4165.3,1508.36,2676.05,"{""FishSmall"":1,""FishBig"":4,""CanSmall"":0,""CanBig"":0,""Seaweed"":1}","{""FishSmall"":1,""FishBig"":0,""CanSmall"":2,""CanBig"":0,""Seaweed"":3}",50,100,15,-1.666666667,20,-10,7.637626158,6.871842709,1,3,-16.66666667,-0.765783449,2,50,"{""FishSmall"":0,""FishBig"":3,""CanSmall"":0,""CanBig"":0,""Seaweed"":0}","{""FishSmall"":1,""FishBig"":0,""CanSmall"":0,""CanBig"":2,""Seaweed"":0}",20,-1.666666667,1,767.327,1,2,2,2,2,2,2,2,2,2,2,2,2,2,100,14,0.964285714,20,0
3714643,24,Female,2,Adults,4,1,trial_15,,,,,1121.24,,,"{""FishSmall"":0,""FishBig"":0,""CanSmall"":1,""CanBig"":4,""Seaweed"":1}","{""FishSmall"":4,""FishBig"":0,""CanSmall"":0,""CanBig"":0,""Seaweed"":2}",0,50,-15,6.666666667,-16.66666667,3.333333333,7.637626158,4.714045208,1,2,21.66666667,-2.92358095,1,50,"{""FishSmall"":0,""FishBig"":0,""CanSmall"":1,""CanBig"":2,""Seaweed"":0}","{""FishSmall"":2,""FishBig"":0,""CanSmall"":1,""CanBig"":0,""Seaweed"":0}",-15,3.333333333,1,767.327,1,2,2,2,2,2,2,2,2,2,2,2,2,2,100,15,0.964285714,-20,0
3714643,24,Female,2,Adults,4,1,trial_16,,0,0,,2096.555,2438.71,1285.84,"{""FishSmall"":5,""FishBig"":0,""CanSmall"":0,""CanBig"":0,""Seaweed"":1}","{""FishSmall"":2,""FishBig"":1,""CanSmall"":1,""CanBig"":0,""Seaweed"":2}",50,100,8.333333333,5,10,6.666666667,3.726779962,9.574271078,1,2,-3.333333333,5.847491115,1,50,"{""FishSmall"":3,""FishBig"":0,""CanSmall"":0,""CanBig"":0,""Seaweed"":0}","{""FishSmall"":1,""FishBig"":1,""CanSmall"":1,""CanBig"":0,""Seaweed"":0}",8.333333333,6.666666667,1,767.327,1,2,2,2,2,2,2,2,2,2,2,2,2,2,100,16,0.964285714,10,-10
3714643,24,Female,2,Adults,4,1,trial_17,,,,,4824.51,,,"{""FishSmall"":2,""FishBig"":0,""CanSmall"":1,""CanBig"":0,""Seaweed"":3}","{""FishSmall"":3,""FishBig"":0,""CanSmall"":1,""CanBig"":0,""Seaweed"":2}",0,0,1.666666667,3.333333333,-6.666666667,0,6.871842709,7.453559925,3,2,1.666666667,0.581717216,-1,0,"{""FishSmall"":1,""FishBig"":0,""CanSmall"":1,""CanBig"":1,""Seaweed"":0}","{""FishSmall"":2,""FishBig"":0,""CanSmall"":0,""CanBig"":1,""Seaweed"":0}",1.666666667,0,1,767.327,1,2,2,2,2,2,2,2,2,2,2,2,2,2,100,17,0.964285714,0,0
3714643,24,Female,2,Adults,4,0,trial_18,,1,,,6835.385,1191.93,,"{""FishSmall"":1,""FishBig"":0,""CanSmall"":4,""CanBig"":0,""Seaweed"":1}","{""FishSmall"":1,""FishBig"":0,""CanSmall"":3,""CanBig"":1,""Seaweed"":1}",100,0,-5,-6.666666667,-10,-3.333333333,7.637626158,9.428090416,1,1,-1.666666667,1.790464258,0,-100,"{""FishSmall"":0,""FishBig"":0,""CanSmall"":3,""CanBig"":0,""Seaweed"":0}","{""FishSmall"":1,""FishBig"":0,""CanSmall"":2,""CanBig"":0,""Seaweed"":0}",-10,-6.666666667,1,767.327,1,2,2,2,2,2,2,2,2,2,2,2,2,2,100,18,0.964285714,0,0
3714643,24,Female,2,Adults,4,0,trial_19,,1,,,4326.555,796.115,,"{""FishSmall"":1,""FishBig"":0,""CanSmall"":1,""CanBig"":1,""Seaweed"":3}","{""FishSmall"":1,""FishBig"":0,""CanSmall"":2,""CanBig"":0,""Seaweed"":3}",100,0,-3.333333333,-1.666666667,-6.666666667,0,9.428090416,6.871842709,3,3,1.666666667,-2.556247706,0,-100,"{""FishSmall"":1,""FishBig"":0,""CanSmall"":1,""CanBig"":1,""Seaweed"":0}","{""FishSmall"":0,""FishBig"":1,""CanSmall"":2,""CanBig"":0,""Seaweed"":0}",-6.666666667,-1.666666667,1,767.327,1,2,2,2,2,2,2,2,2,2,2,2,2,2,100,19,0.964285714,0,20
3714643,24,Female,2,Adults,4,0,trial_20,,,,,2257.605,,,"{""FishSmall"":4,""FishBig"":0,""CanSmall"":2,""CanBig"":0,""Seaweed"":0}","{""FishSmall"":0,""FishBig"":0,""CanSmall"":2,""CanBig"":2,""Seaweed"":2}",50,0,3.333333333,-10,-3.333333333,-6.666666667,9.428090416,8.164965809,0,2,-13.33333333,-1.263124607,2,-50,"{""FishSmall"":1,""FishBig"":0,""CanSmall"":2,""CanBig"":0,""Seaweed"":0}","{""FishSmall"":1,""FishBig"":0,""CanSmall"":1,""CanBig"":1,""Seaweed"":0}",-3.333333333,-10,1,767.327,1,2,2,2,2,2,2,2,2,2,2,2,2,2,100,20,0.964285714,-10,-20
3714643,24,Female,2,Adults,4,,catch_2,1,,,4532.55,,,,"{""FishSmall"":0,""FishBig"":0,""CanSmall"":3,""CanBig"":3,""Seaweed"":0}","{""FishSmall"":0,""FishBig"":0,""CanSmall"":3,""CanBig"":3,""Seaweed"":0}",0,0,,,,,,,,,,,,,"{""FishSmall"":0,""FishBig"":0,""CanSmall"":2,""CanBig"":1,""Seaweed"":0}","{""FishSmall"":0,""FishBig"":0,""CanSmall"":3,""CanBig"":0,""Seaweed"":0}",,,1,767.327,1,2,2,2,2,2,2,2,2,2,2,2,2,2,100,,0.964285714,,
3714643,24,Female,2,Adults,4,1,trial_21,,,0,,5136.025,,1752.055,"{""FishSmall"":0,""FishBig"":1,""CanSmall"":0,""CanBig"":1,""Seaweed"":4}","{""FishSmall"":1,""FishBig"":2,""CanSmall"":0,""CanBig"":0,""Seaweed"":3}",50,50,0,8.333333333,3.333333333,20,11.54700538,8.975274679,4,3,8.333333333,-2.571730705,-1,0,"{""FishSmall"":1,""FishBig"":1,""CanSmall"":0,""CanBig"":1,""Seaweed"":0}","{""FishSmall"":0,""FishBig"":3,""CanSmall"":0,""CanBig"":0,""Seaweed"":0}",0,20,1,767.327,1,2,2,2,2,2,2,2,2,2,2,2,2,2,100,21,0.964285714,10,20
3714643,24,Female,2,Adults,4,1,trial_22,,,,,3587.105,,,"{""FishSmall"":2,""FishBig"":3,""CanSmall"":0,""CanBig"":0,""Seaweed"":1}","{""FishSmall"":2,""FishBig"":1,""CanSmall"":1,""CanBig"":0,""Seaweed"":2}",0,0,13.33333333,5,20,-6.666666667,7.453559925,9.574271078,1,2,-8.333333333,2.120711153,1,0,"{""FishSmall"":0,""FishBig"":3,""CanSmall"":0,""CanBig"":0,""Seaweed"":0}","{""FishSmall"":0,""FishBig"":1,""CanSmall"":0,""CanBig"":2,""Seaweed"":0}",13.33333333,-6.666666667,1,767.327,1,2,2,2,2,2,2,2,2,2,2,2,2,2,100,22,0.964285714,0,-20
3714643,24,Female,2,Adults,4,0,trial_23,,0,,,1096.905,1195.06,,"{""FishSmall"":1,""FishBig"":2,""CanSmall"":0,""CanBig"":0,""Seaweed"":3}","{""FishSmall"":0,""FishBig"":0,""CanSmall"":2,""CanBig"":2,""Seaweed"":2}",50,50,8.333333333,-10,6.666666667,-16.66666667,8.975274679,8.164965809,3,2,-18.33333333,-0.810308869,-1,0,"{""FishSmall"":0,""FishBig"":2,""CanSmall"":0,""CanBig"":1,""Seaweed"":0}","{""FishSmall"":0,""FishBig"":0,""CanSmall"":1,""CanBig"":2,""Seaweed"":0}",6.666666667,-10,1,767.327,1,2,2,2,2,2,2,2,2,2,2,2,2,2,100,23,0.964285714,20,-20
3714643,24,Female,2,Adults,4,1,trial_24,,1,0,,864.3200001,2031.95,1595.62,"{""FishSmall"":0,""FishBig"":0,""CanSmall"":4,""CanBig"":1,""Seaweed"":1}","{""FishSmall"":4,""FishBig"":0,""CanSmall"":1,""CanBig"":0,""Seaweed"":1}",50,100,-10,5,-13.33333333,13.33333333,5.773502692,7.637626158,1,1,15,1.864123466,0,50,"{""FishSmall"":0,""FishBig"":0,""CanSmall"":2,""CanBig"":1,""Seaweed"":0}","{""FishSmall"":2,""FishBig"":1,""CanSmall"":0,""CanBig"":0,""Seaweed"":0}",-10,13.33333333,1,767.327,1,2,2,2,2,2,2,2,2,2,2,2,2,2,100,24,0.964285714,0,10
3714643,24,Female,2,Adults,4,0,trial_25,,,1,,1826.09,,1705.21,"{""FishSmall"":0,""FishBig"":0,""CanSmall"":1,""CanBig"":3,""Seaweed"":2}","{""FishSmall"":0,""FishBig"":0,""CanSmall"":1,""CanBig"":4,""Seaweed"":1}",0,100,-11.66666667,-15,-3.333333333,-20,8.975274679,7.637626158,2,1,-3.333333333,-1.33764852,-1,100,"{""FishSmall"":0,""FishBig"":1,""CanSmall"":1,""CanBig"":1,""Seaweed"":0}","{""FishSmall"":0,""FishBig"":0,""CanSmall"":0,""CanBig"":3,""Seaweed"":0}",-3.333333333,-15,1,767.327,1,2,2,2,2,2,2,2,2,2,2,2,2,2,100,25,0.964285714,20,0
3714643,24,Female,2,Adults,4,1,trial_26,,1,0,,1605.48,2412.805,1500.24,"{""FishSmall"":1,""FishBig"":0,""CanSmall"":2,""CanBig"":0,""Seaweed"":3}","{""FishSmall"":3,""FishBig"":1,""CanSmall"":1,""CanBig"":0,""Seaweed"":1}",50,50,-1.666666667,6.666666667,3.333333333,3.333333333,6.871842709,9.428090416,3,1,8.333333333,2.556247706,-2,0,"{""FishSmall"":2,""FishBig"":0,""CanSmall"":1,""CanBig"":0,""Seaweed"":0}","{""FishSmall"":2,""FishBig"":0,""CanSmall"":1,""CanBig"":0,""Seaweed"":0}",-1.666666667,3.333333333,1,767.327,1,2,2,2,2,2,2,2,2,2,2,2,2,2,100,26,0.964285714,0,10
3714643,24,Female,2,Adults,4,0,trial_27,,,1,,1356.75,,1163.415,"{""FishSmall"":2,""FishBig"":0,""CanSmall"":2,""CanBig"":0,""Seaweed"":2}","{""FishSmall"":0,""FishBig"":0,""CanSmall"":2,""CanBig"":1,""Seaweed"":3}",0,100,0,-6.666666667,0,-13.33333333,8.164965809,7.453559925,2,3,-6.666666667,-0.711405884,1,100,"{""FishSmall"":0,""FishBig"":1,""CanSmall"":2,""CanBig"":0,""Seaweed"":0}","{""FishSmall"":0,""FishBig"":0,""CanSmall"":2,""CanBig"":1,""Seaweed"":0}",0,-6.666666667,1,767.327,1,2,2,2,2,2,2,2,2,2,2,2,2,2,100,27,0.964285714,0,0
3714643,24,Female,2,Adults,4,1,trial_28,,,,,775.2950001,,,"{""FishSmall"":0,""FishBig"":0,""CanSmall"":3,""CanBig"":3,""Seaweed"":0}","{""FishSmall"":1,""FishBig"":0,""CanSmall"":2,""CanBig"":0,""Seaweed"":3}",0,0,-15,-1.666666667,-16.66666667,0,5,6.871842709,0,3,13.33333333,1.871842709,3,0,"{""FishSmall"":0,""FishBig"":0,""CanSmall"":1,""CanBig"":2,""Seaweed"":0}","{""FishSmall"":0,""FishBig"":1,""CanSmall"":2,""CanBig"":0,""Seaweed"":0}",-15,0,1,767.327,1,2,2,2,2,2,2,2,2,2,2,2,2,2,100,28,0.964285714,-20,-10
3714643,24,Female,2,Adults,4,0,trial_29,,0,1,,827.035,1350.125,2382.755,"{""FishSmall"":2,""FishBig"":0,""CanSmall"":1,""CanBig"":0,""Seaweed"":3}","{""FishSmall"":0,""FishBig"":0,""CanSmall"":4,""CanBig"":2,""Seaweed"":0}",50,50,1.666666667,-13.33333333,6.666666667,-13.33333333,6.871842709,4.714045208,3,0,-15,-2.157797501,-3,0,"{""FishSmall"":1,""FishBig"":1,""CanSmall"":1,""CanBig"":0,""Seaweed"":0}","{""FishSmall"":0,""FishBig"":0,""CanSmall"":2,""CanBig"":1,""Seaweed"":0}",6.666666667,-13.33333333,1,767.327,1,2,2,2,2,2,2,2,2,2,2,2,2,2,100,29,0.964285714,20,0
3714643,24,Female,2,Adults,4,0,trial_30,,1,0,,2746.165,1299.68,3815.26,"{""FishSmall"":0,""FishBig"":0,""CanSmall"":1,""CanBig"":2,""Seaweed"":3}","{""FishSmall"":2,""FishBig"":1,""CanSmall"":1,""CanBig"":0,""Seaweed"":2}",100,50,-8.333333333,5,-16.66666667,13.33333333,8.975274679,9.574271078,3,2,13.33333333,0.598996399,-1,-50,"{""FishSmall"":0,""FishBig"":0,""CanSmall"":1,""CanBig"":2,""Seaweed"":0}","{""FishSmall"":2,""FishBig"":1,""CanSmall"":0,""CanBig"":0,""Seaweed"":0}",-16.66666667,5,1,767.327,1,2,2,2,2,2,2,2,2,2,2,2,2,2,100,30,0.964285714,0,20
3714631,18,Male,1,Adults,4,1,trial_1,,,0,,2452.55,,1339.145,"{""FishSmall"":3,""FishBig"":0,""CanSmall"":2,""CanBig"":0,""Seaweed"":1}","{""FishSmall"":1,""FishBig"":1,""CanSmall"":1,""CanBig"":0,""Seaweed"":3}",0,50,1.666666667,3.333333333,3.333333333,10,8.975274679,9.428090416,1,3,1.666666667,0.452815737,2,50,"{""FishSmall"":2,""FishBig"":0,""CanSmall"":1,""CanBig"":0,""Seaweed"":0}","{""FishSmall"":0,""FishBig"":2,""CanSmall"":1,""CanBig"":0,""Seaweed"":0}",1.666666667,10,1,1865.8275,1,2,2,2,2,2,2,2,2,2,2,2,2,2,100,1,1,10,20
3714631,18,Male,1,Adults,4,0,trial_2,,,,,980.025,,,"{""FishSmall"":1,""FishBig"":0,""CanSmall"":2,""CanBig"":1,""Seaweed"":2}","{""FishSmall"":1,""FishBig"":0,""CanSmall"":3,""CanBig"":0,""Seaweed"":2}",50,0,-5,-3.333333333,-10,-3.333333333,9.574271078,7.453559925,2,2,1.666666667,-2.120711153,0,-50,"{""FishSmall"":1,""FishBig"":0,""CanSmall"":0,""CanBig"":2,""Seaweed"":0}","{""FishSmall"":1,""FishBig"":0,""CanSmall"":2,""CanBig"":0,""Seaweed"":0}",-10,-3.333333333,1,1865.8275,1,2,2,2,2,2,2,2,2,2,2,2,2,2,100,2,1,0,0
3714631,18,Male,1,Adults,4,1,trial_3,,0,0,,3321.425,2796.45,891.705,"{""FishSmall"":2,""FishBig"":0,""CanSmall"":1,""CanBig"":0,""Seaweed"":3}","{""FishSmall"":3,""FishBig"":1,""CanSmall"":1,""CanBig"":0,""Seaweed"":1}",100,100,1.666666667,6.666666667,6.666666667,3.333333333,6.871842709,9.428090416,3,1,5,2.556247706,-2,0,"{""FishSmall"":1,""FishBig"":1,""CanSmall"":1,""CanBig"":0,""Seaweed"":0}","{""FishSmall"":2,""FishBig"":0,""CanSmall"":1,""CanBig"":0,""Seaweed"":0}",1.666666667,3.333333333,1,1865.8275,1,2,2,2,2,2,2,2,2,2,2,2,2,2,100,3,1,10,10
3714631,18,Male,1,Adults,4,1,trial_4,,1,,,1495.445,1224.605,2232.635,"{""FishSmall"":0,""FishBig"":0,""CanSmall"":4,""CanBig"":1,""Seaweed"":1}","{""FishSmall"":3,""FishBig"":1,""CanSmall"":1,""CanBig"":0,""Seaweed"":1}",100,0,-10,6.666666667,-13.33333333,0,5.773502692,9.428090416,1,1,16.66666667,3.654587724,0,-100,"{""FishSmall"":0,""FishBig"":0,""CanSmall"":2,""CanBig"":1,""Seaweed"":0}","{""FishSmall"":2,""FishBig"":0,""CanSmall"":0,""CanBig"":1,""Seaweed"":0}",-10,0,1,1865.8275,1,2,2,2,2,2,2,2,2,2,2,2,2,2,100,4,1,0,10
3714631,18,Male,1,Adults,4,0,trial_5,,,0,,1022.735,,1661.935,"{""FishSmall"":1,""FishBig"":3,""CanSmall"":0,""CanBig"":0,""Seaweed"":2}","{""FishSmall"":2,""FishBig"":1,""CanSmall"":1,""CanBig"":0,""Seaweed"":2}",50,100,11.66666667,5,10,10,8.975274679,9.574271078,2,2,-6.666666667,0.598996399,0,50,"{""FishSmall"":0,""FishBig"":2,""CanSmall"":1,""CanBig"":0,""Seaweed"":0}","{""FishSmall"":3,""FishBig"":0,""CanSmall"":0,""CanBig"":0,""Seaweed"":0}",10,5,1,1865.8275,1,2,2,2,2,2,2,2,2,2,2,2,2,2,100,5,1,-10,10
3714631,18,Male,1,Adults,4,0,trial_6,,,,,1203.04,,,"{""FishSmall"":1,""FishBig"":1,""CanSmall"":1,""CanBig"":0,""Seaweed"":3}","{""FishSmall"":0,""FishBig"":0,""CanSmall"":3,""CanBig"":3,""Seaweed"":0}",0,0,3.333333333,-15,0,-16.66666667,9.428090416,5,3,0,-18.33333333,-4.428090416,-3,0,"{""FishSmall"":0,""FishBig"":1,""CanSmall"":2,""CanBig"":0,""Seaweed"":0}","{""FishSmall"":0,""FishBig"":0,""CanSmall"":1,""CanBig"":2,""Seaweed"":0}",0,-15,1,1865.8275,1,2,2,2,2,2,2,2,2,2,2,2,2,2,100,6,1,0,-20
3714631,18,Male,1,Adults,4,1,trial_7,,1,,,956.67,4212.485,,"{""FishSmall"":0,""FishBig"":0,""CanSmall"":3,""CanBig"":2,""Seaweed"":1}","{""FishSmall"":0,""FishBig"":1,""CanSmall"":0,""CanBig"":1,""Seaweed"":4}",100,50,-11.66666667,0,-13.33333333,13.33333333,6.871842709,11.54700538,1,4,11.66666667,4.675162674,3,-50,"{""FishSmall"":0,""FishBig"":0,""CanSmall"":2,""CanBig"":1,""Seaweed"":0}","{""FishSmall"":2,""FishBig"":1,""CanSmall"":0,""CanBig"":0,""Seaweed"":0}",-11.66666667,13.33333333,1,1865.8275,1,2,2,2,2,2,2,2,2,2,2,2,2,2,100,7,1,0,10
3714631,18,Male,1,Adults,4,0,trial_8,,,,,2767.705,,,"{""FishSmall"":0,""FishBig"":0,""CanSmall"":1,""CanBig"":3,""Seaweed"":2}","{""FishSmall"":1,""FishBig"":0,""CanSmall"":2,""CanBig"":1,""Seaweed"":2}",0,50,-11.66666667,-5,-6.666666667,-13.33333333,8.975274679,9.574271078,2,2,6.666666667,0.598996399,0,50,"{""FishSmall"":0,""FishBig"":1,""CanSmall"":0,""CanBig"":2,""Seaweed"":0}","{""FishSmall"":0,""FishBig"":0,""CanSmall"":2,""CanBig"":1,""Seaweed"":0}",-6.666666667,-5,1,1865.8275,1,2,2,2,2,2,2,2,2,2,2,2,2,2,100,8,1,0,0
3714631,18,Male,1,Adults,4,1,trial_9,,1,1,,869.665,1051.55,934.085,"{""FishSmall"":0,""FishBig"":0,""CanSmall"":2,""CanBig"":4,""Seaweed"":0}","{""FishSmall"":0,""FishBig"":0,""CanSmall"":2,""CanBig"":2,""Seaweed"":2}",100,100,-16.66666667,-10,-16.66666667,-3.333333333,4.714045208,8.164965809,0,2,6.666666667,3.450920601,2,0,"{""FishSmall"":0,""FishBig"":0,""CanSmall"":1,""CanBig"":2,""Seaweed"":0}","{""FishSmall"":1,""FishBig"":0,""CanSmall"":2,""CanBig"":0,""Seaweed"":0}",-16.66666667,-3.333333333,1,1865.8275,1,2,2,2,2,2,2,2,2,2,2,2,2,2,100,9,1,0,0
3714631,18,Male,1,Adults,4,1,trial_10,,,1,,699.495,,2488.825,"{""FishSmall"":3,""FishBig"":0,""CanSmall"":2,""CanBig"":0,""Seaweed"":1}","{""FishSmall"":2,""FishBig"":1,""CanSmall"":1,""CanBig"":0,""Seaweed"":2}",0,100,1.666666667,5,3.333333333,-6.666666667,8.975274679,9.574271078,1,2,3.333333333,0.598996399,1,100,"{""FishSmall"":2,""FishBig"":0,""CanSmall"":1,""CanBig"":0,""Seaweed"":0}","{""FishSmall"":0,""FishBig"":1,""CanSmall"":0,""CanBig"":2,""Seaweed"":0}",1.666666667,-6.666666667,1,1865.8275,1,2,2,2,2,2,2,2,2,2,2,2,2,2,100,10,1,0,0
3714631,18,Male,1,Adults,4,,catch_1,0,,,5196.15,,,,"{""FishSmall"":4,""FishBig"":2,""CanSmall"":0,""CanBig"":0,""Seaweed"":0}","{""FishSmall"":4,""FishBig"":2,""CanSmall"":0,""CanBig"":0,""Seaweed"":0}",0,0,,,,,,,,,,,,,"{""FishSmall"":2,""FishBig"":1,""CanSmall"":0,""CanBig"":0,""Seaweed"":0}","{""FishSmall"":3,""FishBig"":0,""CanSmall"":0,""CanBig"":0,""Seaweed"":0}",,,1,1865.8275,1,2,2,2,2,2,2,2,2,2,2,2,2,2,100,,1,,
3714631,18,Male,1,Adults,4,1,trial_11,,,,,1061.39,,,"{""FishSmall"":2,""FishBig"":1,""CanSmall"":1,""CanBig"":0,""Seaweed"":2}","{""FishSmall"":3,""FishBig"":2,""CanSmall"":0,""CanBig"":0,""Seaweed"":1}",0,50,5,11.66666667,-13.33333333,13.33333333,9.574271078,6.871842709,2,1,6.666666667,-2.702428368,-1,50,"{""FishSmall"":0,""FishBig"":0,""CanSmall"":2,""CanBig"":1,""Seaweed"":0}","{""FishSmall"":2,""FishBig"":1,""CanSmall"":0,""CanBig"":0,""Seaweed"":0}",5,13.33333333,1,1865.8275,1,2,2,2,2,2,2,2,2,2,2,2,2,2,100,11,1,-10,10
3714631,18,Male,1,Adults,4,1,trial_12,,1,,,1191.105,783.89,,"{""FishSmall"":1,""FishBig"":0,""CanSmall"":3,""CanBig"":1,""Seaweed"":1}","{""FishSmall"":1,""FishBig"":1,""CanSmall"":1,""CanBig"":0,""Seaweed"":3}",100,0,-6.666666667,3.333333333,-13.33333333,13.33333333,9.428090416,9.428090416,1,3,10,1.78E-15,2,-100,"{""FishSmall"":0,""FishBig"":0,""CanSmall"":2,""CanBig"":1,""Seaweed"":0}","{""FishSmall"":2,""FishBig"":1,""CanSmall"":0,""CanBig"":0,""Seaweed"":0}",-6.666666667,13.33333333,1,1865.8275,1,2,2,2,2,2,2,2,2,2,2,2,2,2,100,12,1,0,10
3714631,18,Male,1,Adults,4,1,trial_13,,0,0,,1275.205,2651.385,774.35,"{""FishSmall"":1,""FishBig"":3,""CanSmall"":0,""CanBig"":0,""Seaweed"":2}","{""FishSmall"":2,""FishBig"":2,""CanSmall"":0,""CanBig"":0,""Seaweed"":2}",50,100,11.66666667,10,16.66666667,13.33333333,8.975274679,8.164965809,2,2,-1.666666667,-0.810308869,0,50,"{""FishSmall"":1,""FishBig"":2,""CanSmall"":0,""CanBig"":0,""Seaweed"":0}","{""FishSmall"":2,""FishBig"":1,""CanSmall"":0,""CanBig"":0,""Seaweed"":0}",11.66666667,13.33333333,1,1865.8275,1,2,2,2,2,2,2,2,2,2,2,2,2,2,100,13,1,20,20
3714631,18,Male,1,Adults,4,1,trial_14,,,0,,3416.87,,1063.855,"{""FishSmall"":1,""FishBig"":0,""CanSmall"":2,""CanBig"":1,""Seaweed"":2}","{""FishSmall"":3,""FishBig"":1,""CanSmall"":0,""CanBig"":0,""Seaweed"":2}",0,100,-5,8.333333333,-3.333333333,13.33333333,9.574271078,6.871842709,2,2,13.33333333,-2.702428368,0,100,"{""FishSmall"":0,""FishBig"":1,""CanSmall"":1,""CanBig"":1,""Seaweed"":0}","{""FishSmall"":2,""FishBig"":1,""CanSmall"":0,""CanBig"":0,""Seaweed"":0}",-5,13.33333333,1,1865.8275,1,2,2,2,2,2,2,2,2,2,2,2,2,2,100,14,1,0,10
3714631,18,Male,1,Adults,4,0,trial_15,,,1,,1170.225,,709.53,"{""FishSmall"":3,""FishBig"":2,""CanSmall"":0,""CanBig"":0,""Seaweed"":1}","{""FishSmall"":0,""FishBig"":0,""CanSmall"":2,""CanBig"":1,""Seaweed"":3}",0,100,11.66666667,-6.666666667,16.66666667,0,6.871842709,7.453559925,1,3,-18.33333333,0.581717216,2,100,"{""FishSmall"":1,""FishBig"":2,""CanSmall"":0,""CanBig"":0,""Seaweed"":0}","{""FishSmall"":0,""FishBig"":1,""CanSmall"":2,""CanBig"":0,""Seaweed"":0}",16.66666667,-6.666666667,1,1865.8275,1,2,2,2,2,2,2,2,2,2,2,2,2,2,100,15,1,0,0
3714631,18,Male,1,Adults,4,1,trial_16,,1,,,1581.065,2545.63,,"{""FishSmall"":0,""FishBig"":0,""CanSmall"":3,""CanBig"":1,""Seaweed"":2}","{""FishSmall"":3,""FishBig"":3,""CanSmall"":0,""CanBig"":0,""Seaweed"":0}",100,0,-8.333333333,15,-6.666666667,16.66666667,6.871842709,5,2,0,23.33333333,-1.871842709,-2,-100,"{""FishSmall"":1,""FishBig"":0,""CanSmall"":1,""CanBig"":1,""Seaweed"":0}","{""FishSmall"":1,""FishBig"":2,""CanSmall"":0,""CanBig"":0,""Seaweed"":0}",-8.333333333,16.66666667,1,1865.8275,1,2,2,2,2,2,2,2,2,2,2,2,2,2,100,16,1,0,0
3714631,18,Male,1,Adults,4,0,trial_17,,1,1,,834.705,1246.945,1157.215,"{""FishSmall"":0,""FishBig"":1,""CanSmall"":0,""CanBig"":1,""Seaweed"":4}","{""FishSmall"":1,""FishBig"":0,""CanSmall"":2,""CanBig"":1,""Seaweed"":2}",100,100,0,-5,-6.666666667,3.333333333,11.54700538,9.574271078,4,2,-5,-1.972734306,-2,0,"{""FishSmall"":0,""FishBig"":1,""CanSmall"":0,""CanBig"":2,""Seaweed"":0}","{""FishSmall"":1,""FishBig"":1,""CanSmall"":0,""CanBig"":1,""Seaweed"":0}",-6.666666667,-5,1,1865.8275,1,2,2,2,2,2,2,2,2,2,2,2,2,2,100,17,1,0,0
3714631,18,Male,1,Adults,4,1,trial_18,,,0,,1033.585,,918.255,"{""FishSmall"":0,""FishBig"":0,""CanSmall"":2,""CanBig"":2,""Seaweed"":2}","{""FishSmall"":2,""FishBig"":2,""CanSmall"":0,""CanBig"":0,""Seaweed"":2}",50,50,-10,10,-20,16.66666667,8.164965809,8.164965809,2,2,20,0,0,0,"{""FishSmall"":0,""FishBig"":0,""CanSmall"":0,""CanBig"":3,""Seaweed"":0}","{""FishSmall"":1,""FishBig"":2,""CanSmall"":0,""CanBig"":0,""Seaweed"":0}",-10,16.66666667,1,1865.8275,1,2,2,2,2,2,2,2,2,2,2,2,2,2,100,18,1,0,20
3714631,18,Male,1,Adults,4,1,trial_19,,,1,,6561.56,,1317.08,"{""FishSmall"":3,""FishBig"":0,""CanSmall"":1,""CanBig"":0,""Seaweed"":2}","{""FishSmall"":1,""FishBig"":0,""CanSmall"":2,""CanBig"":1,""Seaweed"":2}",0,100,3.333333333,-5,3.333333333,-3.333333333,7.453559925,9.574271078,2,2,-8.333333333,2.120711153,0,100,"{""FishSmall"":2,""FishBig"":0,""CanSmall"":1,""CanBig"":0,""Seaweed"":0}","{""FishSmall"":1,""FishBig"":0,""CanSmall"":2,""CanBig"":0,""Seaweed"":0}",3.333333333,-3.333333333,1,1865.8275,1,2,2,2,2,2,2,2,2,2,2,2,2,2,100,19,1,10,0
3714631,18,Male,1,Adults,4,0,trial_20,,,1,,659.33,,4716.155,"{""FishSmall"":3,""FishBig"":2,""CanSmall"":0,""CanBig"":0,""Seaweed"":1}","{""FishSmall"":2,""FishBig"":0,""CanSmall"":2,""CanBig"":0,""Seaweed"":2}",0,100,11.66666667,0,10,3.333333333,6.871842709,8.164965809,1,2,-11.66666667,1.2931231,1,100,"{""FishSmall"":3,""FishBig"":0,""CanSmall"":0,""CanBig"":0,""Seaweed"":0}","{""FishSmall"":2,""FishBig"":0,""CanSmall"":1,""CanBig"":0,""Seaweed"":0}",10,0,1,1865.8275,1,2,2,2,2,2,2,2,2,2,2,2,2,2,100,20,1,10,0
3714631,18,Male,1,Adults,4,,catch_2,1,,,4895.845,,,,"{""FishSmall"":0,""FishBig"":0,""CanSmall"":3,""CanBig"":3,""Seaweed"":0}","{""FishSmall"":0,""FishBig"":0,""CanSmall"":3,""CanBig"":3,""Seaweed"":0}",0,0,,,,,,,,,,,,,"{""FishSmall"":0,""FishBig"":0,""CanSmall"":1,""CanBig"":2,""Seaweed"":0}","{""FishSmall"":0,""FishBig"":0,""CanSmall"":2,""CanBig"":1,""Seaweed"":0}",,,1,1865.8275,1,2,2,2,2,2,2,2,2,2,2,2,2,2,100,,1,,
3714631,18,Male,1,Adults,4,1,trial_21,,,,,887.82,,,"{""FishSmall"":1,""FishBig"":0,""CanSmall"":2,""CanBig"":1,""Seaweed"":2}","{""FishSmall"":0,""FishBig"":0,""CanSmall"":1,""CanBig"":2,""Seaweed"":3}",0,0,-5,-8.333333333,-13.33333333,-20,9.574271078,8.975274679,2,3,-3.333333333,-0.598996399,1,0,"{""FishSmall"":0,""FishBig"":0,""CanSmall"":2,""CanBig"":1,""Seaweed"":0}","{""FishSmall"":0,""FishBig"":0,""CanSmall"":0,""CanBig"":3,""Seaweed"":0}",-5,-20,1,1865.8275,1,2,2,2,2,2,2,2,2,2,2,2,2,2,100,21,1,0,-20
3714631,18,Male,1,Adults,4,0,trial_22,,,,,702.925,,,"{""FishSmall"":1,""FishBig"":0,""CanSmall"":2,""CanBig"":0,""Seaweed"":3}","{""FishSmall"":0,""FishBig"":0,""CanSmall"":4,""CanBig"":1,""Seaweed"":1}",50,0,-1.666666667,-10,-6.666666667,-3.333333333,6.871842709,5.773502692,3,1,-8.333333333,-1.098340017,-2,-50,"{""FishSmall"":1,""FishBig"":0,""CanSmall"":1,""CanBig"":1,""Seaweed"":0}","{""FishSmall"":1,""FishBig"":0,""CanSmall"":2,""CanBig"":0,""Seaweed"":0}",-6.666666667,-10,1,1865.8275,1,2,2,2,2,2,2,2,2,2,2,2,2,2,100,22,1,10,0
3714631,18,Male,1,Adults,4,0,trial_23,,1,,,676.495,1091.02,,"{""FishSmall"":1,""FishBig"":0,""CanSmall"":3,""CanBig"":1,""Seaweed"":1}","{""FishSmall"":0,""FishBig"":0,""CanSmall"":4,""CanBig"":2,""Seaweed"":0}",100,0,-6.666666667,-13.33333333,-10,-10,9.428090416,4.714045208,1,0,-6.666666667,-4.714045208,-1,-100,"{""FishSmall"":0,""FishBig"":0,""CanSmall"":3,""CanBig"":0,""Seaweed"":0}","{""FishSmall"":0,""FishBig"":0,""CanSmall"":3,""CanBig"":0,""Seaweed"":0}",-10,-13.33333333,1,1865.8275,1,2,2,2,2,2,2,2,2,2,2,2,2,2,100,23,1,0,0
3714631,18,Male,1,Adults,4,0,trial_24,,1,1,,754.68,720.685,1176.475,"{""FishSmall"":0,""FishBig"":0,""CanSmall"":2,""CanBig"":2,""Seaweed"":2}","{""FishSmall"":0,""FishBig"":0,""CanSmall"":5,""CanBig"":1,""Seaweed"":0}",100,100,-10,-11.66666667,-13.33333333,-10,8.164965809,3.726779962,2,0,-1.666666667,-4.438185847,-2,0,"{""FishSmall"":0,""FishBig"":0,""CanSmall"":2,""CanBig"":1,""Seaweed"":0}","{""FishSmall"":0,""FishBig"":0,""CanSmall"":3,""CanBig"":0,""Seaweed"":0}",-13.33333333,-11.66666667,1,1865.8275,1,2,2,2,2,2,2,2,2,2,2,2,2,2,100,24,1,0,0
3714631,18,Male,1,Adults,4,1,trial_25,,1,,,889.24,1651.235,,"{""FishSmall"":1,""FishBig"":0,""CanSmall"":3,""CanBig"":0,""Seaweed"":2}","{""FishSmall"":2,""FishBig"":0,""CanSmall"":2,""CanBig"":0,""Seaweed"":2}",100,50,-3.333333333,0,-6.666666667,3.333333333,7.453559925,8.164965809,2,2,3.333333333,0.711405884,0,-50,"{""FishSmall"":1,""FishBig"":0,""CanSmall"":1,""CanBig"":1,""Seaweed"":0}","{""FishSmall"":2,""FishBig"":0,""CanSmall"":1,""CanBig"":0,""Seaweed"":0}",-3.333333333,3.333333333,1,1865.8275,1,2,2,2,2,2,2,2,2,2,2,2,2,2,100,25,1,0,-10
3714631,18,Male,1,Adults,4,1,trial_26,,0,1,,1921.225,1720.65,1298.715,"{""FishSmall"":2,""FishBig"":2,""CanSmall"":0,""CanBig"":0,""Seaweed"":2}","{""FishSmall"":0,""FishBig"":0,""CanSmall"":1,""CanBig"":3,""Seaweed"":2}",100,100,10,-11.66666667,3.333333333,-6.666666667,8.164965809,8.975274679,2,2,-21.66666667,0.810308869,0,0,"{""FishSmall"":2,""FishBig"":0,""CanSmall"":1,""CanBig"":0,""Seaweed"":0}","{""FishSmall"":0,""FishBig"":1,""CanSmall"":0,""CanBig"":2,""Seaweed"":0}",10,-6.666666667,1,1865.8275,1,2,2,2,2,2,2,2,2,2,2,2,2,2,100,26,1,10,0
3714631,18,Male,1,Adults,4,0,trial_27,,1,1,,4006.805,706.475,841.37,"{""FishSmall"":0,""FishBig"":0,""CanSmall"":2,""CanBig"":3,""Seaweed"":1}","{""FishSmall"":0,""FishBig"":0,""CanSmall"":3,""CanBig"":1,""Seaweed"":2}",100,100,-13.33333333,-8.333333333,-20,10,7.453559925,6.871842709,1,2,5,-0.581717216,1,0,"{""FishSmall"":0,""FishBig"":0,""CanSmall"":0,""CanBig"":3,""Seaweed"":0}","{""FishSmall"":0,""FishBig"":2,""CanSmall"":1,""CanBig"":0,""Seaweed"":0}",-20,-8.333333333,1,1865.8275,1,2,2,2,2,2,2,2,2,2,2,2,2,2,100,27,1,0,0
3714631,18,Male,1,Adults,4,1,trial_28,,,0,,1141.05,,1220.555,"{""FishSmall"":3,""FishBig"":1,""CanSmall"":1,""CanBig"":0,""Seaweed"":1}","{""FishSmall"":2,""FishBig"":2,""CanSmall"":0,""CanBig"":0,""Seaweed"":2}",0,100,6.666666667,10,6.666666667,10,9.428090416,8.164965809,1,2,3.333333333,-1.263124607,1,100,"{""FishSmall"":1,""FishBig"":1,""CanSmall"":1,""CanBig"":0,""Seaweed"":0}","{""FishSmall"":0,""FishBig"":2,""CanSmall"":1,""CanBig"":0,""Seaweed"":0}",6.666666667,10,1,1865.8275,1,2,2,2,2,2,2,2,2,2,2,2,2,2,100,28,1,10,-10
3714631,18,Male,1,Adults,4,1,trial_29,,,0,,1044.885,,1022.19,"{""FishSmall"":0,""FishBig"":0,""CanSmall"":4,""CanBig"":0,""Seaweed"":2}","{""FishSmall"":4,""FishBig"":0,""CanSmall"":0,""CanBig"":0,""Seaweed"":2}",50,100,-6.666666667,6.666666667,-10,10,4.714045208,4.714045208,2,2,13.33333333,0,0,50,"{""FishSmall"":0,""FishBig"":0,""CanSmall"":3,""CanBig"":0,""Seaweed"":0}","{""FishSmall"":3,""FishBig"":0,""CanSmall"":0,""CanBig"":0,""Seaweed"":0}",-6.666666667,10,1,1865.8275,1,2,2,2,2,2,2,2,2,2,2,2,2,2,100,29,1,-10,10
3714631,18,Male,1,Adults,4,1,trial_30,,1,0,,1288.71,6870.115,679.225,"{""FishSmall"":1,""FishBig"":0,""CanSmall"":3,""CanBig"":0,""Seaweed"":2}","{""FishSmall"":2,""FishBig"":3,""CanSmall"":0,""CanBig"":0,""Seaweed"":1}",100,100,-3.333333333,13.33333333,-13.33333333,16.66666667,7.453559925,7.453559925,2,1,16.66666667,0,-1,0,"{""FishSmall"":0,""FishBig"":0,""CanSmall"":2,""CanBig"":1,""Seaweed"":0}","{""FishSmall"":1,""FishBig"":2,""CanSmall"":0,""CanBig"":0,""Seaweed"":0}",-3.333333333,16.66666667,1,1865.8275,1,2,2,2,2,2,2,2,2,2,2,2,2,2,100,30,1,0,20
3714626,20,Female,2,Adults,4,0,trial_1,,,1,,5291,,1503,"{""FishSmall"":2,""FishBig"":2,""CanSmall"":0,""CanBig"":0,""Seaweed"":2}","{""FishSmall"":0,""FishBig"":0,""CanSmall"":2,""CanBig"":2,""Seaweed"":2}",0,100,10,-10,20,-16.66666667,8.164965809,8.164965809,2,2,-20,0,0,100,"{""FishSmall"":0,""FishBig"":3,""CanSmall"":0,""CanBig"":0,""Seaweed"":0}","{""FishSmall"":0,""FishBig"":0,""CanSmall"":1,""CanBig"":2,""Seaweed"":0}",20,-10,1,871.1,1,2,2,2,2,2,2,2,2,2,2,2,2,2,100,1,0.928571429,20,0
3714626,20,Female,2,Adults,4,0,trial_2,,,,,5372,,,"{""FishSmall"":2,""FishBig"":1,""CanSmall"":1,""CanBig"":0,""Seaweed"":2}","{""FishSmall"":0,""FishBig"":0,""CanSmall"":1,""CanBig"":3,""Seaweed"":2}",0,0,5,-11.66666667,3.333333333,-6.666666667,9.574271078,8.975274679,2,2,-16.66666667,-0.598996399,0,0,"{""FishSmall"":2,""FishBig"":0,""CanSmall"":1,""CanBig"":0,""Seaweed"":0}","{""FishSmall"":1,""FishBig"":0,""CanSmall"":1,""CanBig"":1,""Seaweed"":0}",3.333333333,-11.66666667,1,871.1,1,2,2,2,2,2,2,2,2,2,2,2,2,2,100,2,0.928571429,10,-10
3714626,20,Female,2,Adults,4,0,trial_3,,,,,3574,,,"{""FishSmall"":1,""FishBig"":0,""CanSmall"":3,""CanBig"":1,""Seaweed"":1}","{""FishSmall"":2,""FishBig"":2,""CanSmall"":0,""CanBig"":0,""Seaweed"":2}",50,0,-6.666666667,10,-10,13.33333333,9.428090416,8.164965809,1,2,16.66666667,-1.263124607,1,-50,"{""FishSmall"":0,""FishBig"":0,""CanSmall"":3,""CanBig"":0,""Seaweed"":0}","{""FishSmall"":2,""FishBig"":1,""CanSmall"":0,""CanBig"":0,""Seaweed"":0}",-10,10,1,871.1,1,2,2,2,2,2,2,2,2,2,2,2,2,2,100,3,0.928571429,0,0
3714626,20,Female,2,Adults,4,1,trial_4,,1,,,922,4108,,"{""FishSmall"":0,""FishBig"":0,""CanSmall"":2,""CanBig"":1,""Seaweed"":3}","{""FishSmall"":0,""FishBig"":0,""CanSmall"":1,""CanBig"":2,""Seaweed"":3}",50,50,-6.666666667,-8.333333333,-13.33333333,3.333333333,7.453559925,8.975274679,3,3,-1.666666667,1.521714754,0,0,"{""FishSmall"":0,""FishBig"":0,""CanSmall"":2,""CanBig"":1,""Seaweed"":0}","{""FishSmall"":1,""FishBig"":1,""CanSmall"":0,""CanBig"":1,""Seaweed"":0}",-6.666666667,3.333333333,1,871.1,1,2,2,2,2,2,2,2,2,2,2,2,2,2,100,4,0.928571429,0,0
3714626,20,Female,2,Adults,4,1,trial_5,,,0,,1451,,898,"{""FishSmall"":1,""FishBig"":0,""CanSmall"":2,""CanBig"":1,""Seaweed"":2}","{""FishSmall"":1,""FishBig"":0,""CanSmall"":1,""CanBig"":1,""Seaweed"":3}",0,100,-5,-3.333333333,6.666666667,-3.333333333,9.574271078,9.428090416,2,3,1.666666667,-0.146180662,1,100,"{""FishSmall"":0,""FishBig"":2,""CanSmall"":0,""CanBig"":1,""Seaweed"":0}","{""FishSmall"":0,""FishBig"":1,""CanSmall"":1,""CanBig"":1,""Seaweed"":0}",-5,-3.333333333,1,871.1,1,2,2,2,2,2,2,2,2,2,2,2,2,2,100,5,0.928571429,0,-20
3714626,20,Female,2,Adults,4,1,trial_6,,,0,,2704,,2265,"{""FishSmall"":2,""FishBig"":0,""CanSmall"":4,""CanBig"":0,""Seaweed"":0}","{""FishSmall"":2,""FishBig"":0,""CanSmall"":2,""CanBig"":0,""Seaweed"":2}",0,100,-3.333333333,0,-3.333333333,0,9.428090416,8.164965809,0,2,3.333333333,-1.263124607,2,100,"{""FishSmall"":1,""FishBig"":0,""CanSmall"":2,""CanBig"":0,""Seaweed"":0}","{""FishSmall"":2,""FishBig"":0,""CanSmall"":0,""CanBig"":1,""Seaweed"":0}",-3.333333333,0,1,871.1,1,2,2,2,2,2,2,2,2,2,2,2,2,2,100,6,0.928571429,-10,-20
3714626,20,Female,2,Adults,4,0,trial_7,,,,,736,,,"{""FishSmall"":0,""FishBig"":0,""CanSmall"":4,""CanBig"":1,""Seaweed"":1}","{""FishSmall"":2,""FishBig"":2,""CanSmall"":0,""CanBig"":0,""Seaweed"":2}",50,0,-10,10,-10,13.33333333,5.773502692,8.164965809,1,2,20,2.391463117,1,-50,"{""FishSmall"":0,""FishBig"":0,""CanSmall"":3,""CanBig"":0,""Seaweed"":0}","{""FishSmall"":2,""FishBig"":1,""CanSmall"":0,""CanBig"":0,""Seaweed"":0}",-10,10,1,871.1,1,2,2,2,2,2,2,2,2,2,2,2,2,2,100,7,0.928571429,0,20
3714626,20,Female,2,Adults,4,1,trial_8,,,1,,1344,,1667,"{""FishSmall"":2,""FishBig"":2,""CanSmall"":0,""CanBig"":0,""Seaweed"":2}","{""FishSmall"":0,""FishBig"":0,""CanSmall"":3,""CanBig"":0,""Seaweed"":3}",0,50,10,-5,6.666666667,-13.33333333,8.164965809,5,2,3,-15,-3.164965809,1,50,"{""FishSmall"":1,""FishBig"":1,""CanSmall"":1,""CanBig"":0,""Seaweed"":0}","{""FishSmall"":0,""FishBig"":0,""CanSmall"":2,""CanBig"":1,""Seaweed"":0}",10,-13.33333333,1,871.1,1,2,2,2,2,2,2,2,2,2,2,2,2,2,100,8,0.928571429,0,0
3714626,20,Female,2,Adults,4,0,trial_9,,,,,603,,,"{""FishSmall"":1,""FishBig"":0,""CanSmall"":2,""CanBig"":0,""Seaweed"":3}","{""FishSmall"":1,""FishBig"":0,""CanSmall"":2,""CanBig"":0,""Seaweed"":3}",50,0,-1.666666667,-1.666666667,6.666666667,3.333333333,6.871842709,6.871842709,3,3,0,0,0,-50,"{""FishSmall"":1,""FishBig"":1,""CanSmall"":1,""CanBig"":0,""Seaweed"":0}","{""FishSmall"":2,""FishBig"":0,""CanSmall"":1,""CanBig"":0,""Seaweed"":0}",6.666666667,-1.666666667,1,871.1,1,2,2,2,2,2,2,2,2,2,2,2,2,2,100,9,0.928571429,10,-10
3714626,20,Female,2,Adults,4,0,trial_10,,0,,,759,1378,,"{""FishSmall"":2,""FishBig"":1,""CanSmall"":1,""CanBig"":0,""Seaweed"":2}","{""FishSmall"":1,""FishBig"":0,""CanSmall"":3,""CanBig"":1,""Seaweed"":1}",100,0,5,-6.666666667,10,-6.666666667,9.574271078,9.428090416,2,1,-11.66666667,-0.146180662,-1,-100,"{""FishSmall"":3,""FishBig"":0,""CanSmall"":0,""CanBig"":0,""Seaweed"":0}","{""FishSmall"":1,""FishBig"":0,""CanSmall"":1,""CanBig"":1,""Seaweed"":0}",10,-6.666666667,1,871.1,1,2,2,2,2,2,2,2,2,2,2,2,2,2,100,10,0.928571429,10,-10
3714626,20,Female,2,Adults,4,,catch_1,0,,,5616,,,,"{""FishSmall"":4,""FishBig"":2,""CanSmall"":0,""CanBig"":0,""Seaweed"":0}","{""FishSmall"":4,""FishBig"":2,""CanSmall"":0,""CanBig"":0,""Seaweed"":0}",0,0,,,,,,,,,,,,,"{""FishSmall"":2,""FishBig"":1,""CanSmall"":0,""CanBig"":0,""Seaweed"":0}","{""FishSmall"":2,""FishBig"":1,""CanSmall"":0,""CanBig"":0,""Seaweed"":0}",,,1,871.1,1,2,2,2,2,2,2,2,2,2,2,2,2,2,100,,0.928571429,,
3714626,20,Female,2,Adults,4,0,trial_11,,,,,726,,,"{""FishSmall"":3,""FishBig"":0,""CanSmall"":1,""CanBig"":0,""Seaweed"":2}","{""FishSmall"":1,""FishBig"":2,""CanSmall"":0,""CanBig"":0,""Seaweed"":3}",50,0,3.333333333,8.333333333,6.666666667,3.333333333,7.453559925,8.975274679,2,3,5,1.521714754,1,-50,"{""FishSmall"":1,""FishBig"":1,""CanSmall"":1,""CanBig"":0,""Seaweed"":0}","{""FishSmall"":1,""FishBig"":1,""CanSmall"":0,""CanBig"":1,""Seaweed"":0}",6.666666667,8.333333333,1,871.1,1,2,2,2,2,2,2,2,2,2,2,2,2,2,100,11,0.928571429,10,10
3714626,20,Female,2,Adults,4,1,trial_12,,1,0,,727,4755,1263,"{""FishSmall"":2,""FishBig"":0,""CanSmall"":2,""CanBig"":0,""Seaweed"":2}","{""FishSmall"":1,""FishBig"":0,""CanSmall"":3,""CanBig"":0,""Seaweed"":2}",50,100,0,-3.333333333,0,-3.333333333,8.164965809,7.453559925,2,2,-3.333333333,-0.711405884,0,50,"{""FishSmall"":2,""FishBig"":0,""CanSmall"":0,""CanBig"":1,""Seaweed"":0}","{""FishSmall"":1,""FishBig"":0,""CanSmall"":2,""CanBig"":0,""Seaweed"":0}",0,-3.333333333,1,871.1,1,2,2,2,2,2,2,2,2,2,2,2,2,2,100,12,0.928571429,0,10
3714626,20,Female,2,Adults,4,0,trial_13,,1,1,,4667,1077,1021,"{""FishSmall"":1,""FishBig"":0,""CanSmall"":1,""CanBig"":1,""Seaweed"":3}","{""FishSmall"":0,""FishBig"":0,""CanSmall"":2,""CanBig"":3,""Seaweed"":1}",100,100,-3.333333333,-13.33333333,-16.66666667,-16.66666667,9.428090416,7.453559925,3,1,-10,-1.974530491,-2,0,"{""FishSmall"":0,""FishBig"":0,""CanSmall"":1,""CanBig"":2,""Seaweed"":0}","{""FishSmall"":0,""FishBig"":0,""CanSmall"":1,""CanBig"":2,""Seaweed"":0}",-16.66666667,-13.33333333,1,871.1,1,2,2,2,2,2,2,2,2,2,2,2,2,2,100,13,0.928571429,0,0
3714626,20,Female,2,Adults,4,0,trial_14,,1,0,,992,1245,2075,"{""FishSmall"":1,""FishBig"":0,""CanSmall"":1,""CanBig"":1,""Seaweed"":3}","{""FishSmall"":3,""FishBig"":3,""CanSmall"":0,""CanBig"":0,""Seaweed"":0}",100,50,-3.333333333,15,-3.333333333,16.66666667,9.428090416,5,3,0,18.33333333,-4.428090416,-3,-50,"{""FishSmall"":0,""FishBig"":1,""CanSmall"":1,""CanBig"":1,""Seaweed"":0}","{""FishSmall"":1,""FishBig"":2,""CanSmall"":0,""CanBig"":0,""Seaweed"":0}",-3.333333333,15,1,871.1,1,2,2,2,2,2,2,2,2,2,2,2,2,2,100,14,0.928571429,0,20
3714626,20,Female,2,Adults,4,1,trial_15,,,0,,1289,,1820,"{""FishSmall"":2,""FishBig"":2,""CanSmall"":0,""CanBig"":0,""Seaweed"":2}","{""FishSmall"":1,""FishBig"":0,""CanSmall"":2,""CanBig"":1,""Seaweed"":2}",50,100,10,-5,13.33333333,3.333333333,8.164965809,9.574271078,2,2,-15,1.409305268,0,50,"{""FishSmall"":2,""FishBig"":1,""CanSmall"":0,""CanBig"":0,""Seaweed"":0}","{""FishSmall"":2,""FishBig"":0,""CanSmall"":1,""CanBig"":0,""Seaweed"":0}",10,3.333333333,1,871.1,1,2,2,2,2,2,2,2,2,2,2,2,2,2,100,15,0.928571429,0,-10
3714626,20,Female,2,Adults,4,1,trial_16,,,0,,738,,1227,"{""FishSmall"":0,""FishBig"":0,""CanSmall"":2,""CanBig"":2,""Seaweed"":2}","{""FishSmall"":2,""FishBig"":2,""CanSmall"":0,""CanBig"":0,""Seaweed"":2}",50,100,-10,10,-3.333333333,13.33333333,8.164965809,8.164965809,2,2,20,0,0,50,"{""FishSmall"":0,""FishBig"":1,""CanSmall"":1,""CanBig"":1,""Seaweed"":0}","{""FishSmall"":2,""FishBig"":1,""CanSmall"":0,""CanBig"":0,""Seaweed"":0}",-10,13.33333333,1,871.1,1,2,2,2,2,2,2,2,2,2,2,2,2,2,100,16,0.928571429,0,10
3714626,20,Female,2,Adults,4,1,trial_17,,,0,,627,,1026,"{""FishSmall"":2,""FishBig"":0,""CanSmall"":2,""CanBig"":0,""Seaweed"":2}","{""FishSmall"":1,""FishBig"":3,""CanSmall"":0,""CanBig"":0,""Seaweed"":2}",50,100,0,11.66666667,-6.666666667,16.66666667,8.164965809,8.975274679,2,2,11.66666667,0.810308869,0,50,"{""FishSmall"":1,""FishBig"":0,""CanSmall"":1,""CanBig"":1,""Seaweed"":0}","{""FishSmall"":1,""FishBig"":2,""CanSmall"":0,""CanBig"":0,""Seaweed"":0}",0,16.66666667,1,871.1,1,2,2,2,2,2,2,2,2,2,2,2,2,2,100,17,0.928571429,-10,10
3714626,20,Female,2,Adults,4,1,trial_18,,,0,,992,,756,"{""FishSmall"":0,""FishBig"":0,""CanSmall"":3,""CanBig"":1,""Seaweed"":2}","{""FishSmall"":3,""FishBig"":2,""CanSmall"":0,""CanBig"":0,""Seaweed"":1}",0,100,-8.333333333,11.66666667,-16.66666667,13.33333333,6.871842709,6.871842709,2,1,20,0,-1,100,"{""FishSmall"":0,""FishBig"":0,""CanSmall"":1,""CanBig"":2,""Seaweed"":0}","{""FishSmall"":2,""FishBig"":1,""CanSmall"":0,""CanBig"":0,""Seaweed"":0}",-8.333333333,13.33333333,1,871.1,1,2,2,2,2,2,2,2,2,2,2,2,2,2,100,18,0.928571429,-10,10
3714626,20,Female,2,Adults,4,1,trial_19,,1,0,,829,2524,1423,"{""FishSmall"":0,""FishBig"":0,""CanSmall"":2,""CanBig"":2,""Seaweed"":2}","{""FishSmall"":2,""FishBig"":1,""CanSmall"":1,""CanBig"":0,""Seaweed"":2}",50,100,-10,5,-16.66666667,0,8.164965809,9.574271078,2,2,15,1.409305268,0,50,"{""FishSmall"":0,""FishBig"":0,""CanSmall"":1,""CanBig"":2,""Seaweed"":0}","{""FishSmall"":2,""FishBig"":0,""CanSmall"":0,""CanBig"":1,""Seaweed"":0}",-10,0,1,871.1,1,2,2,2,2,2,2,2,2,2,2,2,2,2,100,19,0.928571429,0,10
3714626,20,Female,2,Adults,4,0,trial_20,,,1,,868,,1137,"{""FishSmall"":1,""FishBig"":1,""CanSmall"":1,""CanBig"":0,""Seaweed"":3}","{""FishSmall"":0,""FishBig"":0,""CanSmall"":3,""CanBig"":2,""Seaweed"":1}",50,100,3.333333333,-11.66666667,6.666666667,-13.33333333,9.428090416,6.871842709,3,1,-15,-2.556247706,-2,50,"{""FishSmall"":1,""FishBig"":1,""CanSmall"":1,""CanBig"":0,""Seaweed"":0}","{""FishSmall"":0,""FishBig"":0,""CanSmall"":2,""CanBig"":1,""Seaweed"":0}",6.666666667,-11.66666667,1,871.1,1,2,2,2,2,2,2,2,2,2,2,2,2,2,100,20,0.928571429,0,0
3714626,20,Female,2,Adults,4,,catch_2,1,,,1893,,,,"{""FishSmall"":0,""FishBig"":0,""CanSmall"":3,""CanBig"":3,""Seaweed"":0}","{""FishSmall"":0,""FishBig"":0,""CanSmall"":3,""CanBig"":3,""Seaweed"":0}",0,0,,,,,,,,,,,,,"{""FishSmall"":0,""FishBig"":0,""CanSmall"":2,""CanBig"":1,""Seaweed"":0}","{""FishSmall"":0,""FishBig"":0,""CanSmall"":1,""CanBig"":2,""Seaweed"":0}",,,1,871.1,1,2,2,2,2,2,2,2,2,2,2,2,2,2,100,,0.928571429,,
3714626,20,Female,2,Adults,4,1,trial_21,,,0,,2598,,2688,"{""FishSmall"":2,""FishBig"":1,""CanSmall"":1,""CanBig"":0,""Seaweed"":2}","{""FishSmall"":3,""FishBig"":1,""CanSmall"":1,""CanBig"":0,""Seaweed"":1}",0,100,5,6.666666667,6.666666667,3.333333333,9.574271078,9.428090416,2,1,1.666666667,-0.146180662,-1,100,"{""FishSmall"":1,""FishBig"":1,""CanSmall"":1,""CanBig"":0,""Seaweed"":0}","{""FishSmall"":2,""FishBig"":0,""CanSmall"":1,""CanBig"":0,""Seaweed"":0}",5,3.333333333,1,871.1,1,2,2,2,2,2,2,2,2,2,2,2,2,2,100,21,0.928571429,10,10
3714626,20,Female,2,Adults,4,0,trial_22,,1,1,,735,955,2409,"{""FishSmall"":1,""FishBig"":0,""CanSmall"":1,""CanBig"":1,""Seaweed"":3}","{""FishSmall"":0,""FishBig"":0,""CanSmall"":4,""CanBig"":1,""Seaweed"":1}",100,50,-3.333333333,-10,-6.666666667,-13.33333333,9.428090416,5.773502692,3,1,-6.666666667,-3.654587724,-2,-50,"{""FishSmall"":1,""FishBig"":0,""CanSmall"":1,""CanBig"":1,""Seaweed"":0}","{""FishSmall"":0,""FishBig"":0,""CanSmall"":2,""CanBig"":1,""Seaweed"":0}",-6.666666667,-10,1,871.1,1,2,2,2,2,2,2,2,2,2,2,2,2,2,100,22,0.928571429,0,0
3714626,20,Female,2,Adults,4,0,trial_23,,1,1,,990,1322,1346,"{""FishSmall"":3,""FishBig"":1,""CanSmall"":0,""CanBig"":0,""Seaweed"":2}","{""FishSmall"":0,""FishBig"":0,""CanSmall"":1,""CanBig"":4,""Seaweed"":1}",50,100,8.333333333,-15,0,-20,6.871842709,7.637626158,2,1,-23.33333333,0.765783449,-1,50,"{""FishSmall"":2,""FishBig"":0,""CanSmall"":0,""CanBig"":1,""Seaweed"":0}","{""FishSmall"":0,""FishBig"":0,""CanSmall"":0,""CanBig"":3,""Seaweed"":0}",0,-15,1,871.1,1,2,2,2,2,2,2,2,2,2,2,2,2,2,100,23,0.928571429,0,0
