subject_ID,age_in_years,gender,gender_coded,age_group,age_group_coded,info_choice,condition,catch_trials,fishing_choiceL,fishing_choiceR,RT_catch,RT_info_choice,RT_fishingL,RT_fishingR,items_countL,items_countR,agency_probL,agency_probR,EV_L,EV_R,EV_flashL,EV_flashR,SD_L,SD_R,uncertainty_level_L,uncertainty_level_R,delta_EV,delta_SD,delta_uncertainty_level,delta_agency,items_count_flashL,items_count_flashR,EV_at_fishingL,EV_at_fishingR,wob,avg_wob_RT,percent_comprehension,q1,q2,q3,q4,q5,q6,q7,q8,q9,q10,q11,q12,q13,catch_trials_score,trial_number,prop_correct_fishing,fishing_rewardL,fishing_rewardR,fishing_rewardL_rational_fishing,fishing_rewardR_rational_fishing,avg_fishing_reward,avg_fishing_reward_rational_fishing,reward_EV_info,reward_EV_no_info,reward_uncertainty_info,reward_uncertainty_no_info,reward_agency_info,reward_agency_no_info
6729125,43,Female,2,Adults,4,1,trial_1,,1,1,,15986.2,14317.8,5052.8,"{""FishSmall"":2,""FishBig"":0,""CanSmall"":3,""CanBig"":0,""Seaweed"":1}","{""FishSmall"":3,""FishBig"":0,""CanSmall"":1,""CanBig"":0,""Seaweed"":2}",50,100,-1.666666667,3.333333333,3.333333333,-6.666666667,8.975274679,7.453559925,1,2,5,-1.521714754,1,50,"{""FishSmall"":2,""FishBig"":0,""CanSmall"":1,""CanBig"":0,""Seaweed"":0}","{""FishSmall"":1,""FishBig"":0,""CanSmall"":1,""CanBig"":1,""Seaweed"":0}",-1.666666667,-6.666666667,0.9,8816.02,0.961538462,2,2,2,1,2,2,2,2,2,2,2,2,2,100,1,0.9375,0,0,0,0,0,1.166666667,-6.666666667,-1.666666667,2,0,0,0
6729125,43,Female,2,Adults,4,0,trial_2,,0,,,31427.3,2291.7,,"{""FishSmall"":1,""FishBig"":1,""CanSmall"":1,""CanBig"":0,""Seaweed"":3}","{""FishSmall"":0,""FishBig"":0,""CanSmall"":2,""CanBig"":2,""Seaweed"":2}",50,0,3.333333333,-10,3.333333333,-13.33333333,9.428090416,8.164965809,3,2,-13.33333333,-1.263124607,-1,-50,"{""FishSmall"":1,""FishBig"":1,""CanSmall"":0,""CanBig"":1,""Seaweed"":0}","{""FishSmall"":0,""FishBig"":0,""CanSmall"":2,""CanBig"":1,""Seaweed"":0}",3.333333333,-10,0.9,8816.02,0.961538462,2,2,2,1,2,2,2,2,2,2,2,2,2,100,2,0.9375,10,-20,-20,-10,0,1.166666667,3.333333333,-10,3,0,10,-20
6729125,43,Female,2,Adults,4,0,trial_3,,,1,,17271.9,,4991,"{""FishSmall"":2,""FishBig"":2,""CanSmall"":0,""CanBig"":0,""Seaweed"":2}","{""FishSmall"":0,""FishBig"":0,""CanSmall"":2,""CanBig"":2,""Seaweed"":2}",0,100,10,-10,16.66666667,-16.66666667,8.164965809,8.164965809,2,2,-20,0,0,100,"{""FishSmall"":1,""FishBig"":2,""CanSmall"":0,""CanBig"":0,""Seaweed"":0}","{""FishSmall"":0,""FishBig"":0,""CanSmall"":1,""CanBig"":2,""Seaweed"":0}",16.66666667,-10,0.9,8816.02,0.961538462,2,2,2,1,2,2,2,2,2,2,2,2,2,100,3,0.9375,0,0,20,0,0,1.166666667,16.66666667,-10,2,0,0,0
6729125,43,Female,2,Adults,4,0,trial_4,,1,1,,8013.4,8266.4,10572.5,"{""FishSmall"":1,""FishBig"":0,""CanSmall"":3,""CanBig"":1,""Seaweed"":1}","{""FishSmall"":1,""FishBig"":2,""CanSmall"":0,""CanBig"":0,""Seaweed"":3}",50,100,-6.666666667,8.333333333,0,-6.666666667,9.428090416,8.975274679,1,3,15,-0.452815737,2,50,"{""FishSmall"":0,""FishBig"":1,""CanSmall"":2,""CanBig"":0,""Seaweed"":0}","{""FishSmall"":0,""FishBig"":1,""CanSmall"":0,""CanBig"":2,""Seaweed"":0}",0,8.333333333,0.9,8816.02,0.961538462,2,2,2,1,2,2,2,2,2,2,2,2,2,100,4,0.9375,0,0,0,20,0,1.166666667,0,8.333333333,1,0,0,0
6729125,43,Female,2,Adults,4,0,trial_5,,1,,,2649.2,16897.6,,"{""FishSmall"":0,""FishBig"":0,""CanSmall"":3,""CanBig"":1,""Seaweed"":2}","{""FishSmall"":2,""FishBig"":3,""CanSmall"":0,""CanBig"":0,""Seaweed"":1}",100,50,-8.333333333,13.33333333,-6.666666667,6.666666667,6.871842709,7.453559925,2,1,21.66666667,0.581717216,-1,-50,"{""FishSmall"":1,""FishBig"":0,""CanSmall"":1,""CanBig"":1,""Seaweed"":0}","{""FishSmall"":1,""FishBig"":1,""CanSmall"":1,""CanBig"":0,""Seaweed"":0}",-6.666666667,13.33333333,0.9,8816.02,0.961538462,2,2,2,1,2,2,2,2,2,2,2,2,2,100,5,0.9375,0,0,0,0,0,1.166666667,-6.666666667,13.33333333,2,0,0,0
6729125,43,Female,2,Adults,4,1,trial_6,,1,1,,5020.8,6068,2545.4,"{""FishSmall"":0,""FishBig"":0,""CanSmall"":2,""CanBig"":2,""Seaweed"":2}","{""FishSmall"":1,""FishBig"":0,""CanSmall"":2,""CanBig"":0,""Seaweed"":3}",100,50,-10,-1.666666667,-6.666666667,-3.333333333,8.164965809,6.871842709,2,3,8.333333333,-1.2931231,1,-50,"{""FishSmall"":1,""FishBig"":0,""CanSmall"":1,""CanBig"":1,""Seaweed"":0}","{""FishSmall"":1,""FishBig"":0,""CanSmall"":2,""CanBig"":0,""Seaweed"":0}",-10,-3.333333333,0.9,8816.02,0.961538462,2,2,2,1,2,2,2,2,2,2,2,2,2,100,6,0.9375,0,0,0,0,0,1.166666667,-3.333333333,-10,3,0,0,0
6729125,43,Female,2,Adults,4,1,trial_7,,,,,3820,,,"{""FishSmall"":4,""FishBig"":0,""CanSmall"":1,""CanBig"":0,""Seaweed"":1}","{""FishSmall"":0,""FishBig"":0,""CanSmall"":2,""CanBig"":3,""Seaweed"":1}",0,0,5,-13.33333333,-3.333333333,-16.66666667,7.637626158,7.453559925,1,1,-18.33333333,-0.184066233,0,0,"{""FishSmall"":1,""FishBig"":0,""CanSmall"":2,""CanBig"":0,""Seaweed"":0}","{""FishSmall"":0,""FishBig"":0,""CanSmall"":1,""CanBig"":2,""Seaweed"":0}",5,-16.66666667,0.9,8816.02,0.961538462,2,2,2,1,2,2,2,2,2,2,2,2,2,100,7,0.9375,0,-20,0,-20,0,1.166666667,-16.66666667,5,1,0,-20,0
6729125,43,Female,2,Adults,4,0,trial_8,,,,,1712.9,,,"{""FishSmall"":2,""FishBig"":1,""CanSmall"":0,""CanBig"":0,""Seaweed"":3}","{""FishSmall"":2,""FishBig"":1,""CanSmall"":1,""CanBig"":0,""Seaweed"":2}",0,0,6.666666667,5,3.333333333,13.33333333,7.453559925,9.574271078,3,2,-1.666666667,2.120711153,-1,0,"{""FishSmall"":2,""FishBig"":0,""CanSmall"":1,""CanBig"":0,""Seaweed"":0}","{""FishSmall"":2,""FishBig"":1,""CanSmall"":0,""CanBig"":0,""Seaweed"":0}",3.333333333,5,0.9,8816.02,0.961538462,2,2,2,1,2,2,2,2,2,2,2,2,2,100,8,0.9375,10,10,0,10,0,1.166666667,3.333333333,5,3,0,10,10
6729125,43,Female,2,Adults,4,1,trial_9,,0,1,,2625.6,1654.5,1657,"{""FishSmall"":2,""FishBig"":4,""CanSmall"":0,""CanBig"":0,""Seaweed"":0}","{""FishSmall"":2,""FishBig"":0,""CanSmall"":2,""CanBig"":0,""Seaweed"":2}",100,100,16.66666667,0,16.66666667,-6.666666667,4.714045208,8.164965809,0,2,-16.66666667,3.450920601,2,0,"{""FishSmall"":1,""FishBig"":2,""CanSmall"":0,""CanBig"":0,""Seaweed"":0}","{""FishSmall"":1,""FishBig"":0,""CanSmall"":1,""CanBig"":1,""Seaweed"":0}",16.66666667,-6.666666667,0.9,8816.02,0.961538462,2,2,2,1,2,2,2,2,2,2,2,2,2,100,9,0.9375,10,0,10,0,0,1.166666667,-6.666666667,16.66666667,2,0,0,10
6729125,43,Female,2,Adults,4,0,trial_10,,1,,,2096.2,1210.2,,"{""FishSmall"":1,""FishBig"":0,""CanSmall"":4,""CanBig"":0,""Seaweed"":1}","{""FishSmall"":1,""FishBig"":0,""CanSmall"":1,""CanBig"":1,""Seaweed"":3}",50,0,-5,-3.333333333,-10,-6.666666667,7.637626158,9.428090416,1,3,1.666666667,1.790464258,2,-50,"{""FishSmall"":0,""FishBig"":0,""CanSmall"":3,""CanBig"":0,""Seaweed"":0}","{""FishSmall"":1,""FishBig"":0,""CanSmall"":1,""CanBig"":1,""Seaweed"":0}",-10,-3.333333333,0.9,8816.02,0.961538462,2,2,2,1,2,2,2,2,2,2,2,2,2,100,10,0.9375,0,0,0,-10,0,1.166666667,-10,-3.333333333,1,0,0,0
6729125,43,Female,2,Adults,4,,catch_1,0,,,15037.6,,,,"{""FishSmall"":4,""FishBig"":2,""CanSmall"":0,""CanBig"":0,""Seaweed"":0}","{""FishSmall"":4,""FishBig"":2,""CanSmall"":0,""CanBig"":0,""Seaweed"":0}",0,0,,,,,,,,,,,,,"{""FishSmall"":2,""FishBig"":1,""CanSmall"":0,""CanBig"":0,""Seaweed"":0}","{""FishSmall"":2,""FishBig"":1,""CanSmall"":0,""CanBig"":0,""Seaweed"":0}",,,0.9,8816.02,0.961538462,2,2,2,1,2,2,2,2,2,2,2,2,2,100,,0.9375,,,,,,,,,,,,
6729125,43,Female,2,Adults,4,0,trial_11,,,0,,3026.3,,2848,"{""FishSmall"":0,""FishBig"":0,""CanSmall"":2,""CanBig"":2,""Seaweed"":2}","{""FishSmall"":1,""FishBig"":5,""CanSmall"":0,""CanBig"":0,""Seaweed"":0}",0,50,-10,18.33333333,-10,16.66666667,8.164965809,3.726779962,2,0,28.33333333,-4.438185847,-2,50,"{""FishSmall"":1,""FishBig"":0,""CanSmall"":0,""CanBig"":2,""Seaweed"":0}","{""FishSmall"":1,""FishBig"":2,""CanSmall"":0,""CanBig"":0,""Seaweed"":0}",-10,18.33333333,0.9,8816.02,0.961538462,2,2,2,1,2,2,2,2,2,2,2,2,2,100,11,0.9375,-20,20,0,20,0,1.166666667,-10,18.33333333,2,0,-20,20
6729125,43,Female,2,Adults,4,0,trial_12,,,,,3686.9,,2054.7,"{""FishSmall"":2,""FishBig"":0,""CanSmall"":3,""CanBig"":0,""Seaweed"":1}","{""FishSmall"":2,""FishBig"":1,""CanSmall"":1,""CanBig"":0,""Seaweed"":2}",0,0,-1.666666667,5,-3.333333333,3.333333333,8.975274679,9.574271078,1,2,6.666666667,0.598996399,1,0,"{""FishSmall"":1,""FishBig"":0,""CanSmall"":2,""CanBig"":0,""Seaweed"":0}","{""FishSmall"":2,""FishBig"":0,""CanSmall"":1,""CanBig"":0,""Seaweed"":0}",-3.333333333,5,0.9,8816.02,0.961538462,2,2,2,1,2,2,2,2,2,2,2,2,2,100,12,0.9375,10,-10,-10,-10,0,1.166666667,-3.333333333,5,1,0,10,-10
6729125,43,Female,2,Adults,4,1,trial_13,,0,,,4622.9,6270.4,,"{""FishSmall"":1,""FishBig"":3,""CanSmall"":0,""CanBig"":0,""Seaweed"":2}","{""FishSmall"":2,""FishBig"":0,""CanSmall"":2,""CanBig"":0,""Seaweed"":2}",50,0,11.66666667,0,16.66666667,3.333333333,8.975274679,8.164965809,2,2,-11.66666667,-0.810308869,0,-50,"{""FishSmall"":1,""FishBig"":2,""CanSmall"":0,""CanBig"":0,""Seaweed"":0}","{""FishSmall"":1,""FishBig"":1,""CanSmall"":0,""CanBig"":1,""Seaweed"":0}",11.66666667,3.333333333,0.9,8816.02,0.961538462,2,2,2,1,2,2,2,2,2,2,2,2,2,100,13,0.9375,20,0,20,10,0,1.166666667,3.333333333,11.66666667,2,0,0,20
6729125,43,Female,2,Adults,4,0,trial_14,,1,,,18978.7,7394.8,1770.1,"{""FishSmall"":0,""FishBig"":0,""CanSmall"":2,""CanBig"":3,""Seaweed"":1}","{""FishSmall"":2,""FishBig"":0,""CanSmall"":1,""CanBig"":0,""Seaweed"":3}",100,0,-13.33333333,1.666666667,-6.666666667,6.666666667,7.453559925,6.871842709,1,3,15,-0.581717216,2,-100,"{""FishSmall"":0,""FishBig"":1,""CanSmall"":0,""CanBig"":2,""Seaweed"":0}","{""FishSmall"":1,""FishBig"":1,""CanSmall"":1,""CanBig"":0,""Seaweed"":0}",-6.666666667,1.666666667,0.9,8816.02,0.961538462,2,2,2,1,2,2,2,2,2,2,2,2,2,100,14,0.9375,0,0,0,0,0,1.166666667,-6.666666667,1.666666667,1,0,0,0
6729125,43,Female,2,Adults,4,1,trial_15,,,0,,14513.4,1630.2,1246.4,"{""FishSmall"":1,""FishBig"":0,""CanSmall"":2,""CanBig"":1,""Seaweed"":2}","{""FishSmall"":0,""FishBig"":0,""CanSmall"":2,""CanBig"":1,""Seaweed"":3}",0,100,-5,-6.666666667,-3.333333333,0,9.574271078,7.453559925,2,3,-1.666666667,-2.120711153,1,100,"{""FishSmall"":0,""FishBig"":1,""CanSmall"":1,""CanBig"":1,""Seaweed"":0}","{""FishSmall"":2,""FishBig"":0,""CanSmall"":0,""CanBig"":1,""Seaweed"":0}",-5,0,0.9,8816.02,0.961538462,2,2,2,1,2,2,2,2,2,2,2,2,2,100,15,0.9375,-10,-20,-10,0,0,1.166666667,0,-5,3,0,-20,-10
6729125,43,Female,2,Adults,4,1,trial_16,,1,,,1442,4739.4,1584.7,"{""FishSmall"":1,""FishBig"":0,""CanSmall"":2,""CanBig"":1,""Seaweed"":2}","{""FishSmall"":0,""FishBig"":0,""CanSmall"":1,""CanBig"":3,""Seaweed"":2}",100,0,-5,-11.66666667,-6.666666667,-13.33333333,9.574271078,8.975274679,2,2,-6.666666667,-0.598996399,0,-100,"{""FishSmall"":1,""FishBig"":0,""CanSmall"":1,""CanBig"":1,""Seaweed"":0}","{""FishSmall"":0,""FishBig"":0,""CanSmall"":2,""CanBig"":1,""Seaweed"":0}",-5,-13.33333333,0.9,8816.02,0.961538462,2,2,2,1,2,2,2,2,2,2,2,2,2,100,16,0.9375,0,0,0,0,0,1.166666667,-13.33333333,-5,2,0,0,0
6729125,43,Female,2,Adults,4,1,trial_17,,0,,,22502.1,26869.3,,"{""FishSmall"":1,""FishBig"":2,""CanSmall"":0,""CanBig"":0,""Seaweed"":3}","{""FishSmall"":1,""FishBig"":1,""CanSmall"":1,""CanBig"":0,""Seaweed"":3}",50,50,8.333333333,3.333333333,3.333333333,6.666666667,8.975274679,9.428090416,3,3,-5,0.452815737,0,0,"{""FishSmall"":1,""FishBig"":1,""CanSmall"":0,""CanBig"":1,""Seaweed"":0}","{""FishSmall"":1,""FishBig"":1,""CanSmall"":1,""CanBig"":0,""Seaweed"":0}",8.333333333,6.666666667,0.9,8816.02,0.961538462,2,2,2,1,2,2,2,2,2,2,2,2,2,100,17,0.9375,20,0,10,0,0,1.166666667,6.666666667,8.333333333,3,0,0,20
6729125,43,Female,2,Adults,4,1,trial_18,,1,1,,14468.3,1880.9,1375.2,"{""FishSmall"":1,""FishBig"":0,""CanSmall"":1,""CanBig"":1,""Seaweed"":3}","{""FishSmall"":0,""FishBig"":0,""CanSmall"":2,""CanBig"":3,""Seaweed"":1}",100,50,-3.333333333,-13.33333333,-13.33333333,-13.33333333,9.428090416,7.453559925,3,1,-10,-1.974530491,-2,-50,"{""FishSmall"":0,""FishBig"":0,""CanSmall"":2,""CanBig"":1,""Seaweed"":0}","{""FishSmall"":0,""FishBig"":0,""CanSmall"":2,""CanBig"":1,""Seaweed"":0}",-3.333333333,-13.33333333,0.9,8816.02,0.961538462,2,2,2,1,2,2,2,2,2,2,2,2,2,100,18,0.9375,0,0,0,0,0,1.166666667,-13.33333333,-3.333333333,1,0,0,0
6729125,43,Female,2,Adults,4,0,trial_19,,,0,,1432.4,,20710.9,"{""FishSmall"":1,""FishBig"":0,""CanSmall"":3,""CanBig"":1,""Seaweed"":1}","{""FishSmall"":3,""FishBig"":1,""CanSmall"":1,""CanBig"":0,""Seaweed"":1}",0,50,-6.666666667,6.666666667,3.333333333,3.333333333,9.428090416,9.428090416,1,1,13.33333333,1.78E-15,0,50,"{""FishSmall"":2,""FishBig"":0,""CanSmall"":1,""CanBig"":0,""Seaweed"":0}","{""FishSmall"":2,""FishBig"":0,""CanSmall"":1,""CanBig"":0,""Seaweed"":0}",3.333333333,6.666666667,0.9,8816.02,0.961538462,2,2,2,1,2,2,2,2,2,2,2,2,2,100,19,0.9375,-10,10,0,10,0,1.166666667,3.333333333,6.666666667,1,0,-10,10
6729125,43,Female,2,Adults,4,0,trial_20,,,,,16863.5,1361.3,,"{""FishSmall"":3,""FishBig"":0,""CanSmall"":1,""CanBig"":0,""Seaweed"":2}","{""FishSmall"":1,""FishBig"":1,""CanSmall"":1,""CanBig"":0,""Seaweed"":3}",0,50,3.333333333,3.333333333,10,-3.333333333,7.453559925,9.428090416,2,3,0,1.974530491,1,50,"{""FishSmall"":3,""FishBig"":0,""CanSmall"":0,""CanBig"":0,""Seaweed"":0}","{""FishSmall"":1,""FishBig"":0,""CanSmall"":2,""CanBig"":0,""Seaweed"":0}",10,3.333333333,0.9,8816.02,0.961538462,2,2,2,1,2,2,2,2,2,2,2,2,2,100,20,0.9375,10,-10,10,0,0,1.166666667,10,3.333333333,2,0,10,-10
6729125,43,Female,2,Adults,4,,catch_2,1,,,5349.7,,,,"{""FishSmall"":0,""FishBig"":0,""CanSmall"":3,""CanBig"":3,""Seaweed"":0}","{""FishSmall"":0,""FishBig"":0,""CanSmall"":3,""CanBig"":3,""Seaweed"":0}",0,0,,,,,,,,,,,,,"{""FishSmall"":0,""FishBig"":0,""CanSmall"":2,""CanBig"":1,""Seaweed"":0}","{""FishSmall"":0,""FishBig"":0,""CanSmall"":2,""CanBig"":1,""Seaweed"":0}",,,0.9,8816.02,0.961538462,2,2,2,1,2,2,2,2,2,2,2,2,2,100,,0.9375,,,,,,,,,,,,
6729125,43,Female,2,Adults,4,1,trial_21,,1,,,1801.8,8459,,"{""FishSmall"":0,""FishBig"":0,""CanSmall"":2,""CanBig"":1,""Seaweed"":3}","{""FishSmall"":4,""FishBig"":0,""CanSmall"":1,""CanBig"":0,""Seaweed"":1}",100,50,-6.666666667,5,-3.333333333,0,7.453559925,7.637626158,3,1,11.66666667,0.184066233,-2,-50,"{""FishSmall"":0,""FishBig"":1,""CanSmall"":1,""CanBig"":1,""Seaweed"":0}","{""FishSmall"":2,""FishBig"":0,""CanSmall"":0,""CanBig"":1,""Seaweed"":0}",-6.666666667,0,0.9,8816.02,0.961538462,2,2,2,1,2,2,2,2,2,2,2,2,2,100,21,0.9375,0,0,0,0,0,1.166666667,0,-6.666666667,1,0,0,0
6729125,43,Female,2,Adults,4,0,trial_22,,1,,,4411.1,24393.6,,"{""FishSmall"":0,""FishBig"":0,""CanSmall"":2,""CanBig"":1,""Seaweed"":3}","{""FishSmall"":0,""FishBig"":1,""CanSmall"":0,""CanBig"":1,""Seaweed"":4}",100,50,-6.666666667,0,0,3.333333333,7.453559925,11.54700538,3,4,6.666666667,4.093445459,1,-50,"{""FishSmall"":0,""FishBig"":1,""CanSmall"":2,""CanBig"":0,""Seaweed"":0}","{""FishSmall"":1,""FishBig"":1,""CanSmall"":0,""CanBig"":1,""Seaweed"":0}",0,0,0.9,8816.02,0.961538462,2,2,2,1,2,2,2,2,2,2,2,2,2,100,22,0.9375,0,10,0,10,0,1.166666667,0,0,3,0,0,10
6729125,43,Female,2,Adults,4,1,trial_23,,,,,3595.4,,2018.7,"{""FishSmall"":0,""FishBig"":0,""CanSmall"":3,""CanBig"":0,""Seaweed"":3}","{""FishSmall"":0,""FishBig"":0,""CanSmall"":2,""CanBig"":2,""Seaweed"":2}",0,0,-5,-10,-10,-16.66666667,5,8.164965809,3,2,-5,3.164965809,-1,0,"{""FishSmall"":0,""FishBig"":0,""CanSmall"":3,""CanBig"":0,""Seaweed"":0}","{""FishSmall"":0,""FishBig"":0,""CanSmall"":1,""CanBig"":2,""Seaweed"":0}",-5,-16.66666667,0.9,8816.02,0.961538462,2,2,2,1,2,2,2,2,2,2,2,2,2,100,23,0.9375,0,0,0,-20,0,1.166666667,-16.66666667,-5,2,0,0,0
6729125,43,Female,2,Adults,4,1,trial_24,,,1,,10978.5,,17777.2,"{""FishSmall"":3,""FishBig"":1,""CanSmall"":1,""CanBig"":0,""Seaweed"":1}","{""FishSmall"":0,""FishBig"":0,""CanSmall"":2,""CanBig"":3,""Seaweed"":1}",50,100,6.666666667,-13.33333333,-6.666666667,-3.333333333,9.428090416,7.453559925,1,1,-20,-1.974530491,0,50,"{""FishSmall"":1,""FishBig"":0,""CanSmall"":1,""CanBig"":1,""Seaweed"":0}","{""FishSmall"":0,""FishBig"":1,""CanSmall"":1,""CanBig"":1,""Seaweed"":0}",6.666666667,-3.333333333,0.9,8816.02,0.961538462,2,2,2,1,2,2,2,2,2,2,2,2,2,100,24,0.9375,0,0,10,0,0,1.166666667,-3.333333333,6.666666667,1,0,0,0
6729125,43,Female,2,Adults,4,0,trial_25,,0,,,1593,31831,2163.6,"{""FishSmall"":1,""FishBig"":0,""CanSmall"":2,""CanBig"":1,""Seaweed"":2}","{""FishSmall"":3,""FishBig"":3,""CanSmall"":0,""CanBig"":0,""Seaweed"":0}",100,0,-5,15,6.666666667,16.66666667,9.574271078,5,2,0,20,-4.574271078,-2,-100,"{""FishSmall"":1,""FishBig"":1,""CanSmall"":1,""CanBig"":0,""Seaweed"":0}","{""FishSmall"":1,""FishBig"":2,""CanSmall"":0,""CanBig"":0,""Seaweed"":0}",6.666666667,15,0.9,8816.02,0.961538462,2,2,2,1,2,2,2,2,2,2,2,2,2,100,25,0.9375,-10,0,20,20,0,1.166666667,6.666666667,15,2,0,-10,0
6729125,43,Female,2,Adults,4,1,trial_26,,1,,,1042,18476.5,2592.6,"{""FishSmall"":2,""FishBig"":0,""CanSmall"":4,""CanBig"":0,""Seaweed"":0}","{""FishSmall"":0,""FishBig"":0,""CanSmall"":1,""CanBig"":2,""Seaweed"":3}",100,0,-3.333333333,-8.333333333,-10,-3.333333333,9.428090416,8.975274679,0,3,-5,-0.452815737,3,-100,"{""FishSmall"":0,""FishBig"":0,""CanSmall"":3,""CanBig"":0,""Seaweed"":0}","{""FishSmall"":0,""FishBig"":1,""CanSmall"":1,""CanBig"":1,""Seaweed"":0}",-3.333333333,-3.333333333,0.9,8816.02,0.961538462,2,2,2,1,2,2,2,2,2,2,2,2,2,100,26,0.9375,0,-10,0,0,0,1.166666667,-3.333333333,-3.333333333,3,0,-10,0
6729125,43,Female,2,Adults,4,1,trial_27,,0,0,,21193.3,2278.8,2980.1,"{""FishSmall"":1,""FishBig"":0,""CanSmall"":1,""CanBig"":1,""Seaweed"":3}","{""FishSmall"":3,""FishBig"":1,""CanSmall"":1,""CanBig"":0,""Seaweed"":1}",50,50,-3.333333333,6.666666667,-16.66666667,6.666666667,9.428090416,9.428090416,3,1,10,0,-2,0,"{""FishSmall"":0,""FishBig"":0,""CanSmall"":1,""CanBig"":2,""Seaweed"":0}","{""FishSmall"":1,""FishBig"":1,""CanSmall"":1,""CanBig"":0,""Seaweed"":0}",-3.333333333,6.666666667,0.9,8816.02,0.961538462,2,2,2,1,2,2,2,2,2,2,2,2,2,100,27,0.9375,-20,20,0,-10,0,1.166666667,6.666666667,-3.333333333,1,0,20,-20
6729125,43,Female,2,Adults,4,0,trial_28,,1,,,1046.3,34935.6,2198.6,"{""FishSmall"":1,""FishBig"":0,""CanSmall"":2,""CanBig"":0,""Seaweed"":3}","{""FishSmall"":1,""FishBig"":0,""CanSmall"":2,""CanBig"":1,""Seaweed"":2}",100,0,-1.666666667,-5,-3.333333333,-3.333333333,6.871842709,9.574271078,3,2,-3.333333333,2.702428368,-1,-100,"{""FishSmall"":1,""FishBig"":0,""CanSmall"":2,""CanBig"":0,""Seaweed"":0}","{""FishSmall"":0,""FishBig"":1,""CanSmall"":1,""CanBig"":1,""Seaweed"":0}",-3.333333333,-5,0.9,8816.02,0.961538462,2,2,2,1,2,2,2,2,2,2,2,2,2,100,28,0.9375,0,-10,0,-20,0,1.166666667,-3.333333333,-5,3,0,0,-10
6729125,43,Female,2,Adults,4,0,trial_29,,1,1,,1906,2288.8,22674.8,"{""FishSmall"":0,""FishBig"":0,""CanSmall"":2,""CanBig"":3,""Seaweed"":1}","{""FishSmall"":0,""FishBig"":0,""CanSmall"":0,""CanBig"":5,""Seaweed"":1}",50,50,-13.33333333,-16.66666667,-13.33333333,-20,7.453559925,7.453559925,1,1,-3.333333333,8.88E-16,0,0,"{""FishSmall"":0,""FishBig"":0,""CanSmall"":2,""CanBig"":1,""Seaweed"":0}","{""FishSmall"":0,""FishBig"":0,""CanSmall"":0,""CanBig"":3,""Seaweed"":0}",-13.33333333,-16.66666667,0.9,8816.02,0.961538462,2,2,2,1,2,2,2,2,2,2,2,2,2,100,29,0.9375,0,0,0,0,0,1.166666667,-13.33333333,-16.66666667,1,0,0,0
6729125,43,Female,2,Adults,4,0,trial_30,,,0,,1390.3,1849.7,21530.5,"{""FishSmall"":2,""FishBig"":0,""CanSmall"":2,""CanBig"":0,""Seaweed"":2}","{""FishSmall"":5,""FishBig"":0,""CanSmall"":1,""CanBig"":0,""Seaweed"":0}",0,100,0,6.666666667,3.333333333,3.333333333,8.164965809,7.453559925,2,0,6.666666667,-0.711405884,-2,100,"{""FishSmall"":1,""FishBig"":1,""CanSmall"":0,""CanBig"":1,""Seaweed"":0}","{""FishSmall"":2,""FishBig"":0,""CanSmall"":1,""CanBig"":0,""Seaweed"":0}",3.333333333,6.666666667,0.9,8816.02,0.961538462,2,2,2,1,2,2,2,2,2,2,2,2,2,100,30,0.9375,0,10,0,10,0,1.166666667,3.333333333,6.666666667,2,0,0,10
6729126,22,Female,2,Adults,4,0,trial_1,,0,,,1847.3,2031.3,,"{""FishSmall"":0,""FishBig"":0,""CanSmall"":2,""CanBig"":1,""Seaweed"":3}","{""FishSmall"":2,""FishBig"":0,""CanSmall"":3,""CanBig"":0,""Seaweed"":1}",100,50,-6.666666667,-1.666666667,3.333333333,6.666666667,7.453559925,8.975274679,3,1,5,1.521714754,-2,-50,"{""FishSmall"":1,""FishBig"":1,""CanSmall"":0,""CanBig"":1,""Seaweed"":0}","{""FishSmall"":1,""FishBig"":1,""CanSmall"":1,""CanBig"":0,""Seaweed"":0}",3.333333333,-1.666666667,1,661.28,1,2,2,2,2,2,2,2,2,2,2,2,2,2,100,1,1,10,0,-20,-10,1.166666667,2.333333333,3.333333333,-1.666666667,3,0,10,0
6729126,22,Female,2,Adults,4,0,trial_2,,0,0,,2545,3450.2,2985.2,"{""FishSmall"":2,""FishBig"":1,""CanSmall"":1,""CanBig"":0,""Seaweed"":2}","{""FishSmall"":3,""FishBig"":1,""CanSmall"":1,""CanBig"":0,""Seaweed"":1}",100,50,5,6.666666667,3.333333333,3.333333333,9.574271078,9.428090416,2,1,1.666666667,-0.146180662,-1,-50,"{""FishSmall"":2,""FishBig"":0,""CanSmall"":1,""CanBig"":0,""Seaweed"":0}","{""FishSmall"":2,""FishBig"":0,""CanSmall"":1,""CanBig"":0,""Seaweed"":0}",3.333333333,6.666666667,1,661.28,1,2,2,2,2,2,2,2,2,2,2,2,2,2,100,2,1,10,10,10,10,1.166666667,2.333333333,3.333333333,6.666666667,2,0,10,10
6729126,22,Female,2,Adults,4,1,trial_3,,,,,4078.4,,,"{""FishSmall"":0,""FishBig"":0,""CanSmall"":2,""CanBig"":1,""Seaweed"":3}","{""FishSmall"":2,""FishBig"":1,""CanSmall"":1,""CanBig"":0,""Seaweed"":2}",50,0,-6.666666667,5,-10,-3.333333333,7.453559925,9.574271078,3,2,11.66666667,2.120711153,-1,-50,"{""FishSmall"":0,""FishBig"":0,""CanSmall"":3,""CanBig"":0,""Seaweed"":0}","{""FishSmall"":0,""FishBig"":1,""CanSmall"":1,""CanBig"":1,""Seaweed"":0}",-6.666666667,-3.333333333,1,661.28,1,2,2,2,2,2,2,2,2,2,2,2,2,2,100,3,1,-10,0,0,0,1.166666667,2.333333333,-3.333333333,-6.666666667,2,0,0,-10
6729126,22,Female,2,Adults,4,1,trial_4,,0,0,,1248.1,2582.1,3066.1,"{""FishSmall"":4,""FishBig"":2,""CanSmall"":0,""CanBig"":0,""Seaweed"":0}","{""FishSmall"":1,""FishBig"":2,""CanSmall"":0,""CanBig"":0,""Seaweed"":3}",50,100,13.33333333,8.333333333,16.66666667,10,4.714045208,8.975274679,0,3,-5,4.261229471,3,50,"{""FishSmall"":1,""FishBig"":2,""CanSmall"":0,""CanBig"":0,""Seaweed"":0}","{""FishSmall"":0,""FishBig"":2,""CanSmall"":1,""CanBig"":0,""Seaweed"":0}",13.33333333,10,1,661.28,1,2,2,2,2,2,2,2,2,2,2,2,2,2,100,4,1,10,-10,10,20,1.166666667,2.333333333,10,13.33333333,3,0,-10,10
6729126,22,Female,2,Adults,4,0,trial_5,,,0,,1943.1,,3134,"{""FishSmall"":2,""FishBig"":3,""CanSmall"":0,""CanBig"":0,""Seaweed"":1}","{""FishSmall"":1,""FishBig"":4,""CanSmall"":0,""CanBig"":0,""Seaweed"":1}",50,50,13.33333333,15,6.666666667,16.66666667,7.453559925,7.637626158,1,1,1.666666667,0.184066233,0,0,"{""FishSmall"":1,""FishBig"":1,""CanSmall"":1,""CanBig"":0,""Seaweed"":0}","{""FishSmall"":1,""FishBig"":2,""CanSmall"":0,""CanBig"":0,""Seaweed"":0}",6.666666667,15,1,661.28,1,2,2,2,2,2,2,2,2,2,2,2,2,2,100,5,1,0,10,10,20,1.166666667,2.333333333,6.666666667,15,1,0,0,10
6729126,22,Female,2,Adults,4,0,trial_6,,1,,,1267.6,1333.3,,"{""FishSmall"":1,""FishBig"":1,""CanSmall"":1,""CanBig"":0,""Seaweed"":3}","{""FishSmall"":3,""FishBig"":0,""CanSmall"":0,""CanBig"":0,""Seaweed"":3}",100,50,3.333333333,5,0,13.33333333,9.428090416,5,3,3,1.666666667,-4.428090416,0,-50,"{""FishSmall"":0,""FishBig"":1,""CanSmall"":2,""CanBig"":0,""Seaweed"":0}","{""FishSmall"":2,""FishBig"":1,""CanSmall"":0,""CanBig"":0,""Seaweed"":0}",0,5,1,661.28,1,2,2,2,2,2,2,2,2,2,2,2,2,2,100,6,1,0,20,0,0,1.166666667,2.333333333,0,5,3,0,0,20
6729126,22,Female,2,Adults,4,0,trial_7,,0,1,,782.1,893.2,2610.5,"{""FishSmall"":3,""FishBig"":0,""CanSmall"":1,""CanBig"":0,""Seaweed"":2}","{""FishSmall"":1,""FishBig"":0,""CanSmall"":3,""CanBig"":1,""Seaweed"":1}",100,100,3.333333333,-6.666666667,3.333333333,-6.666666667,7.453559925,9.428090416,2,1,-10,1.974530491,-1,0,"{""FishSmall"":2,""FishBig"":0,""CanSmall"":1,""CanBig"":0,""Seaweed"":0}","{""FishSmall"":1,""FishBig"":0,""CanSmall"":1,""CanBig"":1,""Seaweed"":0}",3.333333333,-6.666666667,1,661.28,1,2,2,2,2,2,2,2,2,2,2,2,2,2,100,7,1,-10,0,10,0,1.166666667,2.333333333,3.333333333,-6.666666667,2,0,-10,0
6729126,22,Female,2,Adults,4,1,trial_8,,0,0,,2503.7,2738.2,1692.2,"{""FishSmall"":1,""FishBig"":4,""CanSmall"":0,""CanBig"":0,""Seaweed"":1}","{""FishSmall"":3,""FishBig"":1,""CanSmall"":1,""CanBig"":0,""Seaweed"":1}",100,100,15,6.666666667,16.66666667,3.333333333,7.637626158,9.428090416,1,1,-8.333333333,1.790464258,0,0,"{""FishSmall"":1,""FishBig"":2,""CanSmall"":0,""CanBig"":0,""Seaweed"":0}","{""FishSmall"":2,""FishBig"":0,""CanSmall"":1,""CanBig"":0,""Seaweed"":0}",15,3.333333333,1,661.28,1,2,2,2,2,2,2,2,2,2,2,2,2,2,100,8,1,10,10,20,-10,1.166666667,2.333333333,3.333333333,15,1,0,10,10
6729126,22,Female,2,Adults,4,0,trial_9,,,,,1257.5,,,"{""FishSmall"":1,""FishBig"":3,""CanSmall"":0,""CanBig"":0,""Seaweed"":2}","{""FishSmall"":1,""FishBig"":0,""CanSmall"":3,""CanBig"":0,""Seaweed"":2}",0,50,11.66666667,-3.333333333,10,0,8.975274679,7.453559925,2,2,-15,-1.521714754,0,50,"{""FishSmall"":0,""FishBig"":2,""CanSmall"":1,""CanBig"":0,""Seaweed"":0}","{""FishSmall"":0,""FishBig"":1,""CanSmall"":2,""CanBig"":0,""Seaweed"":0}",10,-3.333333333,1,661.28,1,2,2,2,2,2,2,2,2,2,2,2,2,2,100,9,1,0,0,0,20,1.166666667,2.333333333,10,-3.333333333,2,0,0,0
6729126,22,Female,2,Adults,4,1,trial_10,,1,,,582.9,3285,,"{""FishSmall"":1,""FishBig"":0,""CanSmall"":2,""CanBig"":1,""Seaweed"":2}","{""FishSmall"":4,""FishBig"":1,""CanSmall"":0,""CanBig"":0,""Seaweed"":1}",100,50,-5,10,-6.666666667,10,9.574271078,5.773502692,2,1,15,-3.800768386,-1,-50,"{""FishSmall"":1,""FishBig"":0,""CanSmall"":1,""CanBig"":1,""Seaweed"":0}","{""FishSmall"":3,""FishBig"":0,""CanSmall"":0,""CanBig"":0,""Seaweed"":0}",-5,10,1,661.28,1,2,2,2,2,2,2,2,2,2,2,2,2,2,100,10,1,0,0,0,10,1.166666667,2.333333333,10,-5,1,0,0,0
6729126,22,Female,2,Adults,4,,catch_1,0,,,4816.4,,,,"{""FishSmall"":4,""FishBig"":2,""CanSmall"":0,""CanBig"":0,""Seaweed"":0}","{""FishSmall"":4,""FishBig"":2,""CanSmall"":0,""CanBig"":0,""Seaweed"":0}",0,0,,,,,,,,,,,,,"{""FishSmall"":3,""FishBig"":0,""CanSmall"":0,""CanBig"":0,""Seaweed"":0}","{""FishSmall"":2,""FishBig"":1,""CanSmall"":0,""CanBig"":0,""Seaweed"":0}",,,1,661.28,1,2,2,2,2,2,2,2,2,2,2,2,2,2,100,,1,,,,,,,,,,,,
6729126,22,Female,2,Adults,4,0,trial_11,,,,,1765.6,,,"{""FishSmall"":1,""FishBig"":2,""CanSmall"":0,""CanBig"":0,""Seaweed"":3}","{""FishSmall"":1,""FishBig"":4,""CanSmall"":0,""CanBig"":0,""Seaweed"":1}",0,0,8.333333333,15,6.666666667,6.666666667,8.975274679,7.637626158,3,1,6.666666667,-1.33764852,-2,0,"{""FishSmall"":0,""FishBig"":2,""CanSmall"":0,""CanBig"":1,""Seaweed"":0}","{""FishSmall"":0,""FishBig"":2,""CanSmall"":0,""CanBig"":1,""Seaweed"":0}",6.666666667,15,1,661.28,1,2,2,2,2,2,2,2,2,2,2,2,2,2,100,11,1,0,20,0,0,1.166666667,2.333333333,6.666666667,15,3,0,0,20
6729126,22,Female,2,Adults,4,1,trial_12,,,,,1196.7,,,"{""FishSmall"":0,""FishBig"":0,""CanSmall"":3,""CanBig"":2,""Seaweed"":1}","{""FishSmall"":2,""FishBig"":1,""CanSmall"":1,""CanBig"":0,""Seaweed"":2}",0,50,-11.66666667,5,-6.666666667,-10,6.871842709,9.574271078,1,2,16.66666667,2.702428368,1,50,"{""FishSmall"":1,""FishBig"":0,""CanSmall"":1,""CanBig"":1,""Seaweed"":0}","{""FishSmall"":0,""FishBig"":0,""CanSmall"":3,""CanBig"":0,""Seaweed"":0}",-11.66666667,-10,1,661.28,1,2,2,2,2,2,2,2,2,2,2,2,2,2,100,12,1,0,-10,0,-10,1.166666667,2.333333333,-10,-11.66666667,2,0,-10,0
6729126,22,Female,2,Adults,4,0,trial_13,,,1,,1170.7,,2646.9,"{""FishSmall"":3,""FishBig"":1,""CanSmall"":1,""CanBig"":0,""Seaweed"":1}","{""FishSmall"":1,""FishBig"":0,""CanSmall"":4,""CanBig"":0,""Seaweed"":1}",50,50,6.666666667,-5,6.666666667,0,9.428090416,7.637626158,1,1,-11.66666667,-1.790464258,0,0,"{""FishSmall"":1,""FishBig"":1,""CanSmall"":1,""CanBig"":0,""Seaweed"":0}","{""FishSmall"":0,""FishBig"":1,""CanSmall"":2,""CanBig"":0,""Seaweed"":0}",6.666666667,-5,1,661.28,1,2,2,2,2,2,2,2,2,2,2,2,2,2,100,13,1,0,0,-10,0,1.166666667,2.333333333,6.666666667,-5,1,0,0,0
6729126,22,Female,2,Adults,4,0,trial_14,,1,0,,1388.4,1589.1,3658.7,"{""FishSmall"":0,""FishBig"":0,""CanSmall"":1,""CanBig"":2,""Seaweed"":3}","{""FishSmall"":2,""FishBig"":2,""CanSmall"":0,""CanBig"":0,""Seaweed"":2}",100,100,-8.333333333,10,-3.333333333,-6.666666667,8.975274679,8.164965809,3,2,18.33333333,-0.810308869,-1,0,"{""FishSmall"":0,""FishBig"":1,""CanSmall"":1,""CanBig"":1,""Seaweed"":0}","{""FishSmall"":1,""FishBig"":0,""CanSmall"":1,""CanBig"":1,""Seaweed"":0}",-3.333333333,10,1,661.28,1,2,2,2,2,2,2,2,2,2,2,2,2,2,100,14,1,0,-10,0,10,1.166666667,2.333333333,-3.333333333,10,3,0,0,-10
6729126,22,Female,2,Adults,4,0,trial_15,,,0,,1457.3,,3468.2,"{""FishSmall"":0,""FishBig"":0,""CanSmall"":3,""CanBig"":2,""Seaweed"":1}","{""FishSmall"":3,""FishBig"":1,""CanSmall"":1,""CanBig"":0,""Seaweed"":1}",0,50,-11.66666667,6.666666667,-3.333333333,10,6.871842709,9.428090416,1,1,18.33333333,2.556247706,0,50,"{""FishSmall"":0,""FishBig"":1,""CanSmall"":1,""CanBig"":1,""Seaweed"":0}","{""FishSmall"":3,""FishBig"":0,""CanSmall"":0,""CanBig"":0,""Seaweed"":0}",-3.333333333,6.666666667,1,661.28,1,2,2,2,2,2,2,2,2,2,2,2,2,2,100,15,1,20,10,20,10,1.166666667,2.333333333,-3.333333333,6.666666667,1,0,20,10
6729126,22,Female,2,Adults,4,1,trial_16,,1,,,1578.3,3381.7,,"{""FishSmall"":0,""FishBig"":0,""CanSmall"":2,""CanBig"":2,""Seaweed"":2}","{""FishSmall"":0,""FishBig"":0,""CanSmall"":1,""CanBig"":2,""Seaweed"":3}",50,50,-10,-8.333333333,-6.666666667,-16.66666667,8.164965809,8.975274679,2,3,1.666666667,0.810308869,1,0,"{""FishSmall"":0,""FishBig"":1,""CanSmall"":0,""CanBig"":2,""Seaweed"":0}","{""FishSmall"":0,""FishBig"":0,""CanSmall"":1,""CanBig"":2,""Seaweed"":0}",-10,-16.66666667,1,661.28,1,2,2,2,2,2,2,2,2,2,2,2,2,2,100,16,1,0,-20,0,0,1.166666667,2.333333333,-16.66666667,-10,3,0,-20,0
6729126,22,Female,2,Adults,4,0,trial_17,,,1,,2625.8,,2591.4,"{""FishSmall"":2,""FishBig"":1,""CanSmall"":1,""CanBig"":0,""Seaweed"":2}","{""FishSmall"":0,""FishBig"":0,""CanSmall"":2,""CanBig"":2,""Seaweed"":2}",0,100,5,-10,13.33333333,-3.333333333,9.574271078,8.164965809,2,2,-15,-1.409305268,0,100,"{""FishSmall"":2,""FishBig"":1,""CanSmall"":0,""CanBig"":0,""Seaweed"":0}","{""FishSmall"":0,""FishBig"":1,""CanSmall"":1,""CanBig"":1,""Seaweed"":0}",13.33333333,-10,1,661.28,1,2,2,2,2,2,2,2,2,2,2,2,2,2,100,17,1,10,0,10,0,1.166666667,2.333333333,13.33333333,-10,2,0,10,0
6729126,22,Female,2,Adults,4,1,trial_18,,0,0,,2570.7,1828.5,980.1,"{""FishSmall"":3,""FishBig"":1,""CanSmall"":1,""CanBig"":0,""Seaweed"":1}","{""FishSmall"":1,""FishBig"":0,""CanSmall"":2,""CanBig"":1,""Seaweed"":2}",100,100,6.666666667,-5,3.333333333,6.666666667,9.428090416,9.574271078,1,2,-11.66666667,0.146180662,1,0,"{""FishSmall"":2,""FishBig"":0,""CanSmall"":1,""CanBig"":0,""Seaweed"":0}","{""FishSmall"":1,""FishBig"":1,""CanSmall"":1,""CanBig"":0,""Seaweed"":0}",6.666666667,6.666666667,1,661.28,1,2,2,2,2,2,2,2,2,2,2,2,2,2,100,18,1,10,-10,10,10,1.166666667,2.333333333,6.666666667,6.666666667,2,0,-10,10
6729126,22,Female,2,Adults,4,0,trial_19,,,0,,2556.7,,2083.9,"{""FishSmall"":2,""FishBig"":0,""CanSmall"":1,""CanBig"":0,""Seaweed"":3}","{""FishSmall"":3,""FishBig"":1,""CanSmall"":1,""CanBig"":0,""Seaweed"":1}",0,100,1.666666667,6.666666667,-16.66666667,3.333333333,6.871842709,9.428090416,3,1,5,2.556247706,-2,100,"{""FishSmall"":0,""FishBig"":0,""CanSmall"":1,""CanBig"":2,""Seaweed"":0}","{""FishSmall"":2,""FishBig"":0,""CanSmall"":1,""CanBig"":0,""Seaweed"":0}",-16.66666667,6.666666667,1,661.28,1,2,2,2,2,2,2,2,2,2,2,2,2,2,100,19,1,0,10,-20,10,1.166666667,2.333333333,-16.66666667,6.666666667,3,0,0,10
6729126,22,Female,2,Adults,4,1,trial_20,,0,1,,652.5,2770.5,856.7,"{""FishSmall"":5,""FishBig"":0,""CanSmall"":0,""CanBig"":0,""Seaweed"":1}","{""FishSmall"":1,""FishBig"":0,""CanSmall"":1,""CanBig"":1,""Seaweed"":3}",50,100,8.333333333,-3.333333333,10,-6.666666667,3.726779962,9.428090416,1,3,-11.66666667,5.701310453,2,50,"{""FishSmall"":3,""FishBig"":0,""CanSmall"":0,""CanBig"":0,""Seaweed"":0}","{""FishSmall"":1,""FishBig"":0,""CanSmall"":1,""CanBig"":1,""Seaweed"":0}",8.333333333,-6.666666667,1,661.28,1,2,2,2,2,2,2,2,2,2,2,2,2,2,100,20,1,10,0,10,0,1.166666667,2.333333333,-6.666666667,8.333333333,3,0,0,10
6729126,22,Female,2,Adults,4,,catch_2,1,,,940.9,,,,"{""FishSmall"":0,""FishBig"":0,""CanSmall"":3,""CanBig"":3,""Seaweed"":0}","{""FishSmall"":0,""FishBig"":0,""CanSmall"":3,""CanBig"":3,""Seaweed"":0}",0,0,,,,,,,,,,,,,"{""FishSmall"":0,""FishBig"":0,""CanSmall"":3,""CanBig"":0,""Seaweed"":0}","{""FishSmall"":0,""FishBig"":0,""CanSmall"":2,""CanBig"":1,""Seaweed"":0}",,,1,661.28,1,2,2,2,2,2,2,2,2,2,2,2,2,2,100,,1,,,,,,,,,,,,
6729126,22,Female,2,Adults,4,0,trial_21,,,1,,2293.2,,1452.7,"{""FishSmall"":5,""FishBig"":0,""CanSmall"":0,""CanBig"":0,""Seaweed"":1}","{""FishSmall"":0,""FishBig"":0,""CanSmall"":2,""CanBig"":3,""Seaweed"":1}",0,100,8.333333333,-13.33333333,10,-16.66666667,3.726779962,7.453559925,1,1,-21.66666667,3.726779962,0,100,"{""FishSmall"":3,""FishBig"":0,""CanSmall"":0,""CanBig"":0,""Seaweed"":0}","{""FishSmall"":0,""FishBig"":0,""CanSmall"":1,""CanBig"":2,""Seaweed"":0}",10,-13.33333333,1,661.28,1,2,2,2,2,2,2,2,2,2,2,2,2,2,100,21,1,0,0,10,0,1.166666667,2.333333333,10,-13.33333333,1,0,0,0
6729126,22,Female,2,Adults,4,0,trial_22,,,1,,1452.9,,2990.8,"{""FishSmall"":2,""FishBig"":0,""CanSmall"":3,""CanBig"":0,""Seaweed"":1}","{""FishSmall"":0,""FishBig"":0,""CanSmall"":1,""CanBig"":2,""Seaweed"":3}",0,100,-1.666666667,-8.333333333,3.333333333,-3.333333333,8.975274679,8.975274679,1,3,-6.666666667,0,2,100,"{""FishSmall"":2,""FishBig"":0,""CanSmall"":1,""CanBig"":0,""Seaweed"":0}","{""FishSmall"":0,""FishBig"":1,""CanSmall"":1,""CanBig"":1,""Seaweed"":0}",3.333333333,-8.333333333,1,661.28,1,2,2,2,2,2,2,2,2,2,2,2,2,2,100,22,1,-10,0,0,0,1.166666667,2.333333333,3.333333333,-8.333333333,1,0,-10,0
6729126,22,Female,2,Adults,4,0,trial_23,,0,,,1033.6,2752.1,,"{""FishSmall"":2,""FishBig"":1,""CanSmall"":1,""CanBig"":0,""Seaweed"":2}","{""FishSmall"":1,""FishBig"":0,""CanSmall"":2,""CanBig"":1,""Seaweed"":2}",50,0,5,-5,3.333333333,3.333333333,9.574271078,9.574271078,2,2,-10,0,0,-50,"{""FishSmall"":2,""FishBig"":0,""CanSmall"":1,""CanBig"":0,""Seaweed"":0}","{""FishSmall"":1,""FishBig"":1,""CanSmall"":0,""CanBig"":1,""Seaweed"":0}",3.333333333,-5,1,661.28,1,2,2,2,2,2,2,2,2,2,2,2,2,2,100,23,1,10,0,-10,-20,1.166666667,2.333333333,3.333333333,-5,2,0,10,0
6729126,22,Female,2,Adults,4,1,trial_24,,,,,2695.9,,,"{""FishSmall"":3,""FishBig"":1,""CanSmall"":1,""CanBig"":0,""Seaweed"":1}","{""FishSmall"":0,""FishBig"":0,""CanSmall"":2,""CanBig"":2,""Seaweed"":2}",50,0,6.666666667,-10,6.666666667,-10,9.428090416,8.164965809,1,2,-16.66666667,-1.263124607,1,-50,"{""FishSmall"":1,""FishBig"":1,""CanSmall"":1,""CanBig"":0,""Seaweed"":0}","{""FishSmall"":0,""FishBig"":0,""CanSmall"":3,""CanBig"":0,""Seaweed"":0}",6.666666667,-10,1,661.28,1,2,2,2,2,2,2,2,2,2,2,2,2,2,100,24,1,-10,-10,0,-10,1.166666667,2.333333333,-10,6.666666667,2,0,-10,-10
6729126,22,Female,2,Adults,4,1,trial_25,,,,,1007.6,,,"{""FishSmall"":0,""FishBig"":0,""CanSmall"":2,""CanBig"":1,""Seaweed"":3}","{""FishSmall"":1,""FishBig"":0,""CanSmall"":2,""CanBig"":0,""Seaweed"":3}",0,0,-6.666666667,-1.666666667,-6.666666667,0,7.453559925,6.871842709,3,3,5,-0.581717216,0,0,"{""FishSmall"":1,""FishBig"":0,""CanSmall"":1,""CanBig"":1,""Seaweed"":0}","{""FishSmall"":0,""FishBig"":1,""CanSmall"":2,""CanBig"":0,""Seaweed"":0}",-6.666666667,0,1,661.28,1,2,2,2,2,2,2,2,2,2,2,2,2,2,100,25,1,0,-10,10,-10,1.166666667,2.333333333,0,-6.666666667,3,0,-10,0
6729126,22,Female,2,Adults,4,0,trial_26,,,,,3796.6,,,"{""FishSmall"":2,""FishBig"":0,""CanSmall"":1,""CanBig"":0,""Seaweed"":3}","{""FishSmall"":0,""FishBig"":0,""CanSmall"":3,""CanBig"":2,""Seaweed"":1}",0,0,1.666666667,-11.66666667,13.33333333,-13.33333333,6.871842709,6.871842709,3,1,-13.33333333,0,-2,0,"{""FishSmall"":2,""FishBig"":1,""CanSmall"":0,""CanBig"":0,""Seaweed"":0}","{""FishSmall"":0,""FishBig"":0,""CanSmall"":2,""CanBig"":1,""Seaweed"":0}",13.33333333,-11.66666667,1,661.28,1,2,2,2,2,2,2,2,2,2,2,2,2,2,100,26,1,0,-10,10,0,1.166666667,2.333333333,13.33333333,-11.66666667,3,0,0,-10
6729126,22,Female,2,Adults,4,1,trial_27,,1,,,1630.6,1789.5,,"{""FishSmall"":0,""FishBig"":0,""CanSmall"":1,""CanBig"":3,""Seaweed"":2}","{""FishSmall"":0,""FishBig"":0,""CanSmall"":2,""CanBig"":1,""Seaweed"":3}",50,50,-11.66666667,-6.666666667,-6.666666667,-13.33333333,8.975274679,7.453559925,2,3,5,-1.521714754,1,0,"{""FishSmall"":1,""FishBig"":0,""CanSmall"":1,""CanBig"":1,""Seaweed"":0}","{""FishSmall"":0,""FishBig"":0,""CanSmall"":2,""CanBig"":1,""Seaweed"":0}",-11.66666667,-13.33333333,1,661.28,1,2,2,2,2,2,2,2,2,2,2,2,2,2,100,27,1,0,0,0,0,1.166666667,2.333333333,-13.33333333,-11.66666667,3,0,0,0
6729126,22,Female,2,Adults,4,1,trial_28,,,,,2493,,,"{""FishSmall"":2,""FishBig"":0,""CanSmall"":4,""CanBig"":0,""Seaweed"":0}","{""FishSmall"":3,""FishBig"":1,""CanSmall"":0,""CanBig"":0,""Seaweed"":2}",0,0,-3.333333333,8.333333333,-3.333333333,10,9.428090416,6.871842709,0,2,11.66666667,-2.556247706,2,0,"{""FishSmall"":1,""FishBig"":0,""CanSmall"":2,""CanBig"":0,""Seaweed"":0}","{""FishSmall"":3,""FishBig"":0,""CanSmall"":0,""CanBig"":0,""Seaweed"":0}",-3.333333333,10,1,661.28,1,2,2,2,2,2,2,2,2,2,2,2,2,2,100,28,1,0,0,10,0,1.166666667,2.333333333,10,-3.333333333,2,0,0,0
6729126,22,Female,2,Adults,4,1,trial_29,,,1,,1092.3,,1223.5,"{""FishSmall"":1,""FishBig"":0,""CanSmall"":3,""CanBig"":1,""Seaweed"":1}","{""FishSmall"":1,""FishBig"":0,""CanSmall"":3,""CanBig"":1,""Seaweed"":1}",0,100,-6.666666667,-6.666666667,-13.33333333,-13.33333333,9.428090416,9.428090416,1,1,0,0,0,100,"{""FishSmall"":0,""FishBig"":0,""CanSmall"":2,""CanBig"":1,""Seaweed"":0}","{""FishSmall"":0,""FishBig"":0,""CanSmall"":2,""CanBig"":1,""Seaweed"":0}",-6.666666667,-13.33333333,1,661.28,1,2,2,2,2,2,2,2,2,2,2,2,2,2,100,29,1,0,0,-10,0,1.166666667,2.333333333,-13.33333333,-6.666666667,1,0,0,0
6729126,22,Female,2,Adults,4,1,trial_30,,0,,,3383.8,1844.6,,"{""FishSmall"":2,""FishBig"":4,""CanSmall"":0,""CanBig"":0,""Seaweed"":0}","{""FishSmall"":0,""FishBig"":0,""CanSmall"":4,""CanBig"":1,""Seaweed"":1}",100,0,16.66666667,-10,16.66666667,-13.33333333,4.714045208,5.773502692,0,1,-26.66666667,1.059457484,1,-100,"{""FishSmall"":1,""FishBig"":2,""CanSmall"":0,""CanBig"":0,""Seaweed"":0}","{""FishSmall"":0,""FishBig"":0,""CanSmall"":2,""CanBig"":1,""Seaweed"":0}",16.66666667,-13.33333333,1,661.28,1,2,2,2,2,2,2,2,2,2,2,2,2,2,100,30,1,20,-10,20,-10,1.166666667,2.333333333,-13.33333333,16.66666667,1,0,-10,20
6729127,55,Female,2,Adults,4,1,trial_1,,,0,,4878.1,,6398.8,"{""FishSmall"":1,""FishBig"":0,""CanSmall"":2,""CanBig"":0,""Seaweed"":3}","{""FishSmall"":2,""FishBig"":0,""CanSmall"":1,""CanBig"":0,""Seaweed"":3}",50,100,-1.666666667,1.666666667,10,0,6.871842709,6.871842709,3,3,3.333333333,0,0,50,"{""FishSmall"":3,""FishBig"":0,""CanSmall"":0,""CanBig"":0,""Seaweed"":0}","{""FishSmall"":0,""FishBig"":1,""CanSmall"":2,""CanBig"":0,""Seaweed"":0}",-1.666666667,0,1,803.26,1,2,2,2,2,2,2,2,2,2,2,2,2,2,100,1,0.942857143,10,-10,10,0,4.833333333,3.166666667,0,-1.666666667,3,0,-10,10
6729127,55,Female,2,Adults,4,1,trial_2,,,1,,10823.3,,1154.2,"{""FishSmall"":2,""FishBig"":1,""CanSmall"":1,""CanBig"":0,""Seaweed"":2}","{""FishSmall"":0,""FishBig"":0,""CanSmall"":1,""CanBig"":4,""Seaweed"":1}",0,100,5,-15,13.33333333,-13.33333333,9.574271078,7.637626158,2,1,-20,-1.936644919,-1,100,"{""FishSmall"":2,""FishBig"":1,""CanSmall"":0,""CanBig"":0,""Seaweed"":0}","{""FishSmall"":0,""FishBig"":0,""CanSmall"":2,""CanBig"":1,""Seaweed"":0}",5,-13.33333333,1,803.26,1,2,2,2,2,2,2,2,2,2,2,2,2,2,100,2,0.942857143,0,0,10,0,4.833333333,3.166666667,-13.33333333,5,1,0,0,0
6729127,55,Female,2,Adults,4,1,trial_3,,1,0,,2186,4120.3,3531.4,"{""FishSmall"":0,""FishBig"":0,""CanSmall"":3,""CanBig"":2,""Seaweed"":1}","{""FishSmall"":1,""FishBig"":0,""CanSmall"":2,""CanBig"":0,""Seaweed"":3}",50,100,-11.66666667,-1.666666667,-13.33333333,-6.666666667,6.871842709,6.871842709,1,3,10,0,2,50,"{""FishSmall"":0,""FishBig"":0,""CanSmall"":2,""CanBig"":1,""Seaweed"":0}","{""FishSmall"":1,""FishBig"":0,""CanSmall"":1,""CanBig"":1,""Seaweed"":0}",-11.66666667,-6.666666667,1,803.26,1,2,2,2,2,2,2,2,2,2,2,2,2,2,100,3,0.942857143,0,-10,0,0,4.833333333,3.166666667,-6.666666667,-11.66666667,3,0,-10,0
6729127,55,Female,2,Adults,4,0,trial_4,,1,,,2658.3,2580.2,,"{""FishSmall"":2,""FishBig"":1,""CanSmall"":1,""CanBig"":0,""Seaweed"":2}","{""FishSmall"":0,""FishBig"":0,""CanSmall"":2,""CanBig"":1,""Seaweed"":3}",50,50,5,-6.666666667,-6.666666667,-13.33333333,9.574271078,7.453559925,2,3,-11.66666667,-2.120711153,1,0,"{""FishSmall"":1,""FishBig"":0,""CanSmall"":1,""CanBig"":1,""Seaweed"":0}","{""FishSmall"":0,""FishBig"":0,""CanSmall"":2,""CanBig"":1,""Seaweed"":0}",-6.666666667,-6.666666667,1,803.26,1,2,2,2,2,2,2,2,2,2,2,2,2,2,100,4,0.942857143,0,-10,0,-10,4.833333333,3.166666667,-6.666666667,-6.666666667,2,0,0,-10
6729127,55,Female,2,Adults,4,1,trial_5,,,0,,2088.6,,1531.4,"{""FishSmall"":3,""FishBig"":0,""CanSmall"":2,""CanBig"":0,""Seaweed"":1}","{""FishSmall"":3,""FishBig"":3,""CanSmall"":0,""CanBig"":0,""Seaweed"":0}",0,100,1.666666667,15,3.333333333,13.33333333,8.975274679,5,1,0,13.33333333,-3.975274679,-1,100,"{""FishSmall"":2,""FishBig"":0,""CanSmall"":1,""CanBig"":0,""Seaweed"":0}","{""FishSmall"":2,""FishBig"":1,""CanSmall"":0,""CanBig"":0,""Seaweed"":0}",1.666666667,13.33333333,1,803.26,1,2,2,2,2,2,2,2,2,2,2,2,2,2,100,5,0.942857143,10,20,-10,20,4.833333333,3.166666667,13.33333333,1.666666667,0,0,20,10
6729127,55,Female,2,Adults,4,0,trial_6,,0,,,954.7,907.7,,"{""FishSmall"":2,""FishBig"":1,""CanSmall"":0,""CanBig"":0,""Seaweed"":3}","{""FishSmall"":2,""FishBig"":1,""CanSmall"":0,""CanBig"":0,""Seaweed"":3}",100,0,6.666666667,6.666666667,10,13.33333333,7.453559925,7.453559925,3,3,0,0,0,-100,"{""FishSmall"":3,""FishBig"":0,""CanSmall"":0,""CanBig"":0,""Seaweed"":0}","{""FishSmall"":2,""FishBig"":1,""CanSmall"":0,""CanBig"":0,""Seaweed"":0}",10,6.666666667,1,803.26,1,2,2,2,2,2,2,2,2,2,2,2,2,2,100,6,0.942857143,10,20,10,20,4.833333333,3.166666667,10,6.666666667,3,0,10,20
6729127,55,Female,2,Adults,4,0,trial_7,,0,1,,4026.2,2280.2,6804.6,"{""FishSmall"":1,""FishBig"":2,""CanSmall"":0,""CanBig"":0,""Seaweed"":3}","{""FishSmall"":0,""FishBig"":0,""CanSmall"":3,""CanBig"":0,""Seaweed"":3}",50,100,8.333333333,-5,6.666666667,-3.333333333,8.975274679,5,3,3,-13.33333333,-3.975274679,0,50,"{""FishSmall"":1,""FishBig"":1,""CanSmall"":1,""CanBig"":0,""Seaweed"":0}","{""FishSmall"":1,""FishBig"":0,""CanSmall"":2,""CanBig"":0,""Seaweed"":0}",6.666666667,-5,1,803.26,1,2,2,2,2,2,2,2,2,2,2,2,2,2,100,7,0.942857143,20,0,20,0,4.833333333,3.166666667,6.666666667,-5,3,0,20,0
6729127,55,Female,2,Adults,4,1,trial_8,,,0,,2385.9,,1154.7,"{""FishSmall"":0,""FishBig"":0,""CanSmall"":3,""CanBig"":3,""Seaweed"":0}","{""FishSmall"":2,""FishBig"":0,""CanSmall"":2,""CanBig"":0,""Seaweed"":2}",50,50,-15,0,-16.66666667,16.66666667,5,8.164965809,0,2,15,3.164965809,2,0,"{""FishSmall"":0,""FishBig"":0,""CanSmall"":1,""CanBig"":2,""Seaweed"":0}","{""FishSmall"":1,""FishBig"":2,""CanSmall"":0,""CanBig"":0,""Seaweed"":0}",-15,16.66666667,1,803.26,1,2,2,2,2,2,2,2,2,2,2,2,2,2,100,8,0.942857143,0,20,0,20,4.833333333,3.166666667,16.66666667,-15,2,0,20,0
6729127,55,Female,2,Adults,4,1,trial_9,,1,0,,2698.5,3216.3,2388.1,"{""FishSmall"":0,""FishBig"":0,""CanSmall"":5,""CanBig"":1,""Seaweed"":0}","{""FishSmall"":3,""FishBig"":1,""CanSmall"":1,""CanBig"":0,""Seaweed"":1}",50,100,-11.66666667,6.666666667,-10,3.333333333,3.726779962,9.428090416,0,1,18.33333333,5.701310453,1,50,"{""FishSmall"":0,""FishBig"":0,""CanSmall"":3,""CanBig"":0,""Seaweed"":0}","{""FishSmall"":2,""FishBig"":0,""CanSmall"":1,""CanBig"":0,""Seaweed"":0}",-11.66666667,3.333333333,1,803.26,1,2,2,2,2,2,2,2,2,2,2,2,2,2,100,9,0.942857143,0,10,0,-10,4.833333333,3.166666667,3.333333333,-11.66666667,1,0,10,0
6729127,55,Female,2,Adults,4,1,trial_10,,,0,,1720.9,,2004.8,"{""FishSmall"":1,""FishBig"":0,""CanSmall"":2,""CanBig"":1,""Seaweed"":2}","{""FishSmall"":3,""FishBig"":2,""CanSmall"":0,""CanBig"":0,""Seaweed"":1}",50,100,-5,11.66666667,0,16.66666667,9.574271078,6.871842709,2,1,16.66666667,-2.702428368,-1,50,"{""FishSmall"":0,""FishBig"":1,""CanSmall"":2,""CanBig"":0,""Seaweed"":0}","{""FishSmall"":1,""FishBig"":2,""CanSmall"":0,""CanBig"":0,""Seaweed"":0}",-5,16.66666667,1,803.26,1,2,2,2,2,2,2,2,2,2,2,2,2,2,100,10,0.942857143,0,20,-10,20,4.833333333,3.166666667,16.66666667,-5,1,0,20,0
6729127,55,Female,2,Adults,4,,catch_1,0,,,6125.7,,,,"{""FishSmall"":4,""FishBig"":2,""CanSmall"":0,""CanBig"":0,""Seaweed"":0}","{""FishSmall"":4,""FishBig"":2,""CanSmall"":0,""CanBig"":0,""Seaweed"":0}",0,0,,,,,,,,,,,,,"{""FishSmall"":2,""FishBig"":1,""CanSmall"":0,""CanBig"":0,""Seaweed"":0}","{""FishSmall"":2,""FishBig"":1,""CanSmall"":0,""CanBig"":0,""Seaweed"":0}",,,1,803.26,1,2,2,2,2,2,2,2,2,2,2,2,2,2,100,,0.942857143,,,,,,,,,,,,
6729127,55,Female,2,Adults,4,0,trial_11,,0,,,2808.8,1992.7,,"{""FishSmall"":1,""FishBig"":3,""CanSmall"":0,""CanBig"":0,""Seaweed"":2}","{""FishSmall"":0,""FishBig"":0,""CanSmall"":2,""CanBig"":3,""Seaweed"":1}",100,0,11.66666667,-13.33333333,3.333333333,-6.666666667,8.975274679,7.453559925,2,1,-25,-1.521714754,-1,-100,"{""FishSmall"":1,""FishBig"":1,""CanSmall"":0,""CanBig"":1,""Seaweed"":0}","{""FishSmall"":1,""FishBig"":0,""CanSmall"":1,""CanBig"":1,""Seaweed"":0}",3.333333333,-13.33333333,1,803.26,1,2,2,2,2,2,2,2,2,2,2,2,2,2,100,11,0.942857143,20,0,10,0,4.833333333,3.166666667,3.333333333,-13.33333333,2,0,20,0
6729127,55,Female,2,Adults,4,1,trial_12,,1,0,,1790.9,3720.4,2323.6,"{""FishSmall"":0,""FishBig"":0,""CanSmall"":4,""CanBig"":1,""Seaweed"":1}","{""FishSmall"":3,""FishBig"":0,""CanSmall"":1,""CanBig"":0,""Seaweed"":2}",50,100,-10,3.333333333,-13.33333333,3.333333333,5.773502692,7.453559925,1,2,13.33333333,1.680057233,1,50,"{""FishSmall"":0,""FishBig"":0,""CanSmall"":2,""CanBig"":1,""Seaweed"":0}","{""FishSmall"":2,""FishBig"":0,""CanSmall"":1,""CanBig"":0,""Seaweed"":0}",-10,3.333333333,1,803.26,1,2,2,2,2,2,2,2,2,2,2,2,2,2,100,12,0.942857143,0,10,0,-10,4.833333333,3.166666667,3.333333333,-10,2,0,10,0
6729127,55,Female,2,Adults,4,1,trial_13,,,0,,2969.1,,2039.9,"{""FishSmall"":3,""FishBig"":1,""CanSmall"":1,""CanBig"":0,""Seaweed"":1}","{""FishSmall"":2,""FishBig"":1,""CanSmall"":0,""CanBig"":0,""Seaweed"":3}",50,100,6.666666667,6.666666667,6.666666667,3.333333333,9.428090416,7.453559925,1,3,0,-1.974530491,2,50,"{""FishSmall"":1,""FishBig"":1,""CanSmall"":1,""CanBig"":0,""Seaweed"":0}","{""FishSmall"":1,""FishBig"":1,""CanSmall"":0,""CanBig"":1,""Seaweed"":0}",6.666666667,3.333333333,1,803.26,1,2,2,2,2,2,2,2,2,2,2,2,2,2,100,13,0.942857143,10,20,10,10,4.833333333,3.166666667,3.333333333,6.666666667,3,0,20,10
6729127,55,Female,2,Adults,4,1,trial_14,,,,,3533,,,"{""FishSmall"":2,""FishBig"":0,""CanSmall"":3,""CanBig"":0,""Seaweed"":1}","{""FishSmall"":3,""FishBig"":0,""CanSmall"":2,""CanBig"":0,""Seaweed"":1}",0,0,-1.666666667,1.666666667,-3.333333333,10,8.975274679,8.975274679,1,1,3.333333333,0,0,0,"{""FishSmall"":1,""FishBig"":0,""CanSmall"":2,""CanBig"":0,""Seaweed"":0}","{""FishSmall"":3,""FishBig"":0,""CanSmall"":0,""CanBig"":0,""Seaweed"":0}",-1.666666667,10,1,803.26,1,2,2,2,2,2,2,2,2,2,2,2,2,2,100,14,0.942857143,-10,0,10,10,4.833333333,3.166666667,10,-1.666666667,1,0,0,-10
6729127,55,Female,2,Adults,4,0,trial_15,,0,1,,1742.5,839.2,4043.9,"{""FishSmall"":1,""FishBig"":2,""CanSmall"":0,""CanBig"":0,""Seaweed"":3}","{""FishSmall"":3,""FishBig"":0,""CanSmall"":2,""CanBig"":0,""Seaweed"":1}",100,100,8.333333333,1.666666667,16.66666667,-3.333333333,8.975274679,8.975274679,3,1,-6.666666667,0,-2,0,"{""FishSmall"":1,""FishBig"":2,""CanSmall"":0,""CanBig"":0,""Seaweed"":0}","{""FishSmall"":1,""FishBig"":0,""CanSmall"":2,""CanBig"":0,""Seaweed"":0}",16.66666667,1.666666667,1,803.26,1,2,2,2,2,2,2,2,2,2,2,2,2,2,100,15,0.942857143,20,0,10,10,4.833333333,3.166666667,16.66666667,1.666666667,3,0,20,0
6729127,55,Female,2,Adults,4,0,trial_16,,0,,,1697.7,776.4,,"{""FishSmall"":3,""FishBig"":1,""CanSmall"":1,""CanBig"":0,""Seaweed"":1}","{""FishSmall"":0,""FishBig"":1,""CanSmall"":0,""CanBig"":1,""Seaweed"":4}",100,0,6.666666667,0,6.666666667,6.666666667,9.428090416,11.54700538,1,4,-6.666666667,2.118914968,3,-100,"{""FishSmall"":1,""FishBig"":1,""CanSmall"":1,""CanBig"":0,""Seaweed"":0}","{""FishSmall"":1,""FishBig"":1,""CanSmall"":1,""CanBig"":0,""Seaweed"":0}",6.666666667,0,1,803.26,1,2,2,2,2,2,2,2,2,2,2,2,2,2,100,16,0.942857143,-10,-10,-10,0,4.833333333,3.166666667,6.666666667,0,1,0,-10,-10
6729127,55,Female,2,Adults,4,1,trial_17,,,,,1943,,,"{""FishSmall"":0,""FishBig"":0,""CanSmall"":1,""CanBig"":2,""Seaweed"":3}","{""FishSmall"":2,""FishBig"":0,""CanSmall"":2,""CanBig"":0,""Seaweed"":2}",50,50,-8.333333333,0,-3.333333333,-6.666666667,8.975274679,8.164965809,3,2,8.333333333,-0.810308869,-1,0,"{""FishSmall"":0,""FishBig"":1,""CanSmall"":1,""CanBig"":1,""Seaweed"":0}","{""FishSmall"":1,""FishBig"":0,""CanSmall"":1,""CanBig"":1,""Seaweed"":0}",-8.333333333,-6.666666667,1,803.26,1,2,2,2,2,2,2,2,2,2,2,2,2,2,100,17,0.942857143,0,10,0,0,4.833333333,3.166666667,-6.666666667,-8.333333333,2,0,10,0
6729127,55,Female,2,Adults,4,0,trial_18,,0,1,,1703.5,1955.5,2568.1,"{""FishSmall"":2,""FishBig"":0,""CanSmall"":1,""CanBig"":0,""Seaweed"":3}","{""FishSmall"":0,""FishBig"":0,""CanSmall"":2,""CanBig"":1,""Seaweed"":3}",100,100,1.666666667,-6.666666667,13.33333333,-16.66666667,6.871842709,7.453559925,3,3,-8.333333333,0.581717216,0,0,"{""FishSmall"":2,""FishBig"":1,""CanSmall"":0,""CanBig"":0,""Seaweed"":0}","{""FishSmall"":0,""FishBig"":0,""CanSmall"":1,""CanBig"":2,""Seaweed"":0}",13.33333333,-6.666666667,1,803.26,1,2,2,2,2,2,2,2,2,2,2,2,2,2,100,18,0.942857143,20,0,10,0,4.833333333,3.166666667,13.33333333,-6.666666667,3,0,20,0
6729127,55,Female,2,Adults,4,1,trial_19,,1,1,,6457.9,3384.5,3548.1,"{""FishSmall"":0,""FishBig"":0,""CanSmall"":2,""CanBig"":1,""Seaweed"":3}","{""FishSmall"":2,""FishBig"":0,""CanSmall"":2,""CanBig"":0,""Seaweed"":2}",100,50,-6.666666667,0,-3.333333333,-3.333333333,7.453559925,8.164965809,3,2,6.666666667,0.711405884,-1,-50,"{""FishSmall"":0,""FishBig"":1,""CanSmall"":1,""CanBig"":1,""Seaweed"":0}","{""FishSmall"":1,""FishBig"":0,""CanSmall"":2,""CanBig"":0,""Seaweed"":0}",-6.666666667,-3.333333333,1,803.26,1,2,2,2,2,2,2,2,2,2,2,2,2,2,100,19,0.942857143,0,0,0,0,4.833333333,3.166666667,-3.333333333,-6.666666667,2,0,0,0
6729127,55,Female,2,Adults,4,0,trial_20,,,,,1834.4,,,"{""FishSmall"":4,""FishBig"":0,""CanSmall"":1,""CanBig"":0,""Seaweed"":1}","{""FishSmall"":1,""FishBig"":1,""CanSmall"":1,""CanBig"":0,""Seaweed"":3}",50,50,5,3.333333333,3.333333333,3.333333333,7.637626158,9.428090416,1,3,-1.666666667,1.790464258,2,0,"{""FishSmall"":2,""FishBig"":0,""CanSmall"":1,""CanBig"":0,""Seaweed"":0}","{""FishSmall"":1,""FishBig"":1,""CanSmall"":0,""CanBig"":1,""Seaweed"":0}",3.333333333,3.333333333,1,803.26,1,2,2,2,2,2,2,2,2,2,2,2,2,2,100,20,0.942857143,10,0,-10,0,4.833333333,3.166666667,3.333333333,3.333333333,1,0,10,0
6729127,55,Female,2,Adults,4,,catch_2,1,,,3148.3,,,,"{""FishSmall"":0,""FishBig"":0,""CanSmall"":3,""CanBig"":3,""Seaweed"":0}","{""FishSmall"":0,""FishBig"":0,""CanSmall"":3,""CanBig"":3,""Seaweed"":0}",0,0,,,,,,,,,,,,,"{""FishSmall"":0,""FishBig"":0,""CanSmall"":2,""CanBig"":1,""Seaweed"":0}","{""FishSmall"":0,""FishBig"":0,""CanSmall"":1,""CanBig"":2,""Seaweed"":0}",,,1,803.26,1,2,2,2,2,2,2,2,2,2,2,2,2,2,100,,0.942857143,,,,,,,,,,,,
6729127,55,Female,2,Adults,4,1,trial_21,,1,0,,4897.7,3136.2,3299.9,"{""FishSmall"":0,""FishBig"":0,""CanSmall"":1,""CanBig"":3,""Seaweed"":2}","{""FishSmall"":2,""FishBig"":2,""CanSmall"":0,""CanBig"":0,""Seaweed"":2}",100,50,-11.66666667,10,-20,3.333333333,8.975274679,8.164965809,2,2,21.66666667,-0.810308869,0,-50,"{""FishSmall"":0,""FishBig"":0,""CanSmall"":0,""CanBig"":3,""Seaweed"":0}","{""FishSmall"":2,""FishBig"":0,""CanSmall"":1,""CanBig"":0,""Seaweed"":0}",-11.66666667,3.333333333,1,803.26,1,2,2,2,2,2,2,2,2,2,2,2,2,2,100,21,0.942857143,0,10,0,10,4.833333333,3.166666667,3.333333333,-11.66666667,2,0,10,0
6729127,55,Female,2,Adults,4,0,trial_22,,0,1,,4034.9,2287.4,3628.1,"{""FishSmall"":3,""FishBig"":1,""CanSmall"":1,""CanBig"":0,""Seaweed"":1}","{""FishSmall"":1,""FishBig"":0,""CanSmall"":3,""CanBig"":1,""Seaweed"":1}",50,100,6.666666667,-6.666666667,3.333333333,-3.333333333,9.428090416,9.428090416,1,1,-13.33333333,-1.78E-15,0,50,"{""FishSmall"":2,""FishBig"":0,""CanSmall"":1,""CanBig"":0,""Seaweed"":0}","{""FishSmall"":1,""FishBig"":0,""CanSmall"":2,""CanBig"":0,""Seaweed"":0}",3.333333333,-6.666666667,1,803.26,1,2,2,2,2,2,2,2,2,2,2,2,2,2,100,22,0.942857143,10,0,-10,0,4.833333333,3.166666667,3.333333333,-6.666666667,1,0,10,0
6729127,55,Female,2,Adults,4,1,trial_23,,0,,,2059,4296.6,,"{""FishSmall"":3,""FishBig"":0,""CanSmall"":1,""CanBig"":0,""Seaweed"":2}","{""FishSmall"":3,""FishBig"":2,""CanSmall"":0,""CanBig"":0,""Seaweed"":1}",50,50,3.333333333,11.66666667,3.333333333,10,7.453559925,6.871842709,2,1,8.333333333,-0.581717216,-1,0,"{""FishSmall"":2,""FishBig"":0,""CanSmall"":1,""CanBig"":0,""Seaweed"":0}","{""FishSmall"":3,""FishBig"":0,""CanSmall"":0,""CanBig"":0,""Seaweed"":0}",3.333333333,10,1,803.26,1,2,2,2,2,2,2,2,2,2,2,2,2,2,100,23,0.942857143,10,10,-10,10,4.833333333,3.166666667,10,3.333333333,1,0,10,10
6729127,55,Female,2,Adults,4,1,trial_24,,0,,,2629.3,1338.7,,"{""FishSmall"":4,""FishBig"":1,""CanSmall"":1,""CanBig"":0,""Seaweed"":0}","{""FishSmall"":1,""FishBig"":1,""CanSmall"":1,""CanBig"":0,""Seaweed"":3}",100,0,8.333333333,3.333333333,6.666666667,-6.666666667,8.975274679,9.428090416,0,3,-5,0.452815737,3,-100,"{""FishSmall"":1,""FishBig"":1,""CanSmall"":1,""CanBig"":0,""Seaweed"":0}","{""FishSmall"":1,""FishBig"":0,""CanSmall"":1,""CanBig"":1,""Seaweed"":0}",8.333333333,-6.666666667,1,803.26,1,2,2,2,2,2,2,2,2,2,2,2,2,2,100,24,0.942857143,20,-10,20,0,4.833333333,3.166666667,-6.666666667,8.333333333,3,0,-10,20
6729127,55,Female,2,Adults,4,1,trial_25,,,0,,3195.8,,1336.3,"{""FishSmall"":1,""FishBig"":0,""CanSmall"":1,""CanBig"":1,""Seaweed"":3}","{""FishSmall"":2,""FishBig"":3,""CanSmall"":0,""CanBig"":0,""Seaweed"":1}",50,100,-3.333333333,13.33333333,-6.666666667,16.66666667,9.428090416,7.453559925,3,1,16.66666667,-1.974530491,-2,50,"{""FishSmall"":1,""FishBig"":0,""CanSmall"":1,""CanBig"":1,""Seaweed"":0}","{""FishSmall"":1,""FishBig"":2,""CanSmall"":0,""CanBig"":0,""Seaweed"":0}",-3.333333333,16.66666667,1,803.26,1,2,2,2,2,2,2,2,2,2,2,2,2,2,100,25,0.942857143,-20,20,0,20,4.833333333,3.166666667,16.66666667,-3.333333333,1,0,20,-20
6729127,55,Female,2,Adults,4,1,trial_26,,,0,,2454.9,,1156.5,"{""FishSmall"":4,""FishBig"":0,""CanSmall"":0,""CanBig"":0,""Seaweed"":2}","{""FishSmall"":3,""FishBig"":0,""CanSmall"":2,""CanBig"":0,""Seaweed"":1}",0,100,6.666666667,1.666666667,0,3.333333333,4.714045208,8.975274679,2,1,-5,4.261229471,-1,100,"{""FishSmall"":2,""FishBig"":0,""CanSmall"":0,""CanBig"":1,""Seaweed"":0}","{""FishSmall"":2,""FishBig"":0,""CanSmall"":1,""CanBig"":0,""Seaweed"":0}",6.666666667,3.333333333,1,803.26,1,2,2,2,2,2,2,2,2,2,2,2,2,2,100,26,0.942857143,10,10,10,-10,4.833333333,3.166666667,3.333333333,6.666666667,1,0,10,10
6729127,55,Female,2,Adults,4,1,trial_27,,,,,2146.2,,,"{""FishSmall"":1,""FishBig"":0,""CanSmall"":1,""CanBig"":1,""Seaweed"":3}","{""FishSmall"":0,""FishBig"":0,""CanSmall"":1,""CanBig"":4,""Seaweed"":1}",0,50,-3.333333333,-15,3.333333333,-20,9.428090416,7.637626158,3,1,-11.66666667,-1.790464258,-2,50,"{""FishSmall"":2,""FishBig"":0,""CanSmall"":1,""CanBig"":0,""Seaweed"":0}","{""FishSmall"":0,""FishBig"":0,""CanSmall"":0,""CanBig"":3,""Seaweed"":0}",-3.333333333,-20,1,803.26,1,2,2,2,2,2,2,2,2,2,2,2,2,2,100,27,0.942857143,0,-20,10,-20,4.833333333,3.166666667,-20,-3.333333333,1,0,-20,0
6729127,55,Female,2,Adults,4,1,trial_28,,1,0,,2013.7,3624.9,2283.3,"{""FishSmall"":2,""FishBig"":0,""CanSmall"":2,""CanBig"":0,""Seaweed"":2}","{""FishSmall"":2,""FishBig"":2,""CanSmall"":0,""CanBig"":0,""Seaweed"":2}",50,50,0,10,-10,16.66666667,8.164965809,8.164965809,2,2,10,0,0,0,"{""FishSmall"":0,""FishBig"":0,""CanSmall"":3,""CanBig"":0,""Seaweed"":0}","{""FishSmall"":1,""FishBig"":2,""CanSmall"":0,""CanBig"":0,""Seaweed"":0}",0,16.66666667,1,803.26,1,2,2,2,2,2,2,2,2,2,2,2,2,2,100,28,0.942857143,0,20,0,20,4.833333333,3.166666667,16.66666667,0,2,0,20,0
6729127,55,Female,2,Adults,4,1,trial_29,,,0,,3939.4,,1275.6,"{""FishSmall"":2,""FishBig"":0,""CanSmall"":2,""CanBig"":0,""Seaweed"":2}","{""FishSmall"":2,""FishBig"":3,""CanSmall"":0,""CanBig"":0,""Seaweed"":1}",0,100,0,13.33333333,-3.333333333,16.66666667,8.164965809,7.453559925,2,1,13.33333333,-0.711405884,-1,100,"{""FishSmall"":0,""FishBig"":1,""CanSmall"":1,""CanBig"":1,""Seaweed"":0}","{""FishSmall"":1,""FishBig"":2,""CanSmall"":0,""CanBig"":0,""Seaweed"":0}",0,16.66666667,1,803.26,1,2,2,2,2,2,2,2,2,2,2,2,2,2,100,29,0.942857143,-20,20,0,20,4.833333333,3.166666667,16.66666667,0,1,0,20,-20
6729127,55,Female,2,Adults,4,1,trial_30,,,,,3819.7,,,"{""FishSmall"":1,""FishBig"":0,""CanSmall"":3,""CanBig"":1,""Seaweed"":1}","{""FishSmall"":2,""FishBig"":1,""CanSmall"":1,""CanBig"":0,""Seaweed"":2}",0,50,-6.666666667,5,-13.33333333,13.33333333,9.428090416,9.574271078,1,2,11.66666667,0.146180662,1,50,"{""FishSmall"":0,""FishBig"":0,""CanSmall"":2,""CanBig"":1,""Seaweed"":0}","{""FishSmall"":2,""FishBig"":1,""CanSmall"":0,""CanBig"":0,""Seaweed"":0}",-6.666666667,13.33333333,1,803.26,1,2,2,2,2,2,2,2,2,2,2,2,2,2,100,30,0.942857143,0,20,-20,0,4.833333333,3.166666667,13.33333333,-6.666666667,2,0,20,0
6729128,48,Male,1,Adults,4,1,trial_1,,1,0,,3261.3,10062.8,1608.1,"{""FishSmall"":1,""FishBig"":2,""CanSmall"":0,""CanBig"":0,""Seaweed"":3}","{""FishSmall"":5,""FishBig"":1,""CanSmall"":0,""CanBig"":0,""Seaweed"":0}",100,100,8.333333333,11.66666667,16.66666667,10,8.975274679,3.726779962,3,0,3.333333333,-5.248494716,-3,0,"{""FishSmall"":1,""FishBig"":2,""CanSmall"":0,""CanBig"":0,""Seaweed"":0}","{""FishSmall"":3,""FishBig"":0,""CanSmall"":0,""CanBig"":0,""Seaweed"":0}",8.333333333,10,1,2440.2,0.923076923,2,2,2,2,2,2,1,2,2,2,1,2,2,100,1,0.966666667,0,10,20,10,1.833333333,1.833333333,10,8.333333333,0,0,10,0
6729128,48,Male,1,Adults,4,0,trial_2,,0,0,,3231.9,1383.8,6445.1,"{""FishSmall"":3,""FishBig"":3,""CanSmall"":0,""CanBig"":0,""Seaweed"":0}","{""FishSmall"":4,""FishBig"":1,""CanSmall"":0,""CanBig"":0,""Seaweed"":1}",100,50,15,10,13.33333333,10,5,5.773502692,0,1,-5,0.773502692,1,-50,"{""FishSmall"":2,""FishBig"":1,""CanSmall"":0,""CanBig"":0,""Seaweed"":0}","{""FishSmall"":3,""FishBig"":0,""CanSmall"":0,""CanBig"":0,""Seaweed"":0}",13.33333333,10,1,2440.2,0.923076923,2,2,2,2,2,2,1,2,2,2,1,2,2,100,2,0.966666667,10,10,10,10,1.833333333,1.833333333,13.33333333,10,0,0,10,10
6729128,48,Male,1,Adults,4,0,trial_3,,,,,7148.5,,,"{""FishSmall"":2,""FishBig"":1,""CanSmall"":1,""CanBig"":0,""Seaweed"":2}","{""FishSmall"":2,""FishBig"":0,""CanSmall"":1,""CanBig"":0,""Seaweed"":3}",50,0,5,1.666666667,10,3.333333333,9.574271078,6.871842709,2,3,-3.333333333,-2.702428368,1,-50,"{""FishSmall"":3,""FishBig"":0,""CanSmall"":0,""CanBig"":0,""Seaweed"":0}","{""FishSmall"":2,""FishBig"":0,""CanSmall"":1,""CanBig"":0,""Seaweed"":0}",10,1.666666667,1,2440.2,0.923076923,2,2,2,2,2,2,1,2,2,2,1,2,2,100,3,0.966666667,0,10,0,0,1.833333333,1.833333333,10,1.666666667,2,0,0,10
6729128,48,Male,1,Adults,4,0,trial_4,,0,,,1759.1,2878.8,,"{""FishSmall"":3,""FishBig"":2,""CanSmall"":0,""CanBig"":0,""Seaweed"":1}","{""FishSmall"":0,""FishBig"":0,""CanSmall"":1,""CanBig"":4,""Seaweed"":1}",50,0,11.66666667,-15,10,-20,6.871842709,7.637626158,1,1,-26.66666667,0.765783449,0,-50,"{""FishSmall"":3,""FishBig"":0,""CanSmall"":0,""CanBig"":0,""Seaweed"":0}","{""FishSmall"":0,""FishBig"":0,""CanSmall"":0,""CanBig"":3,""Seaweed"":0}",10,-15,1,2440.2,0.923076923,2,2,2,2,2,2,1,2,2,2,1,2,2,100,4,0.966666667,10,-20,10,0,1.833333333,1.833333333,10,-15,1,0,10,-20
6729128,48,Male,1,Adults,4,1,trial_5,,1,1,,2103.3,6117.1,2370.3,"{""FishSmall"":1,""FishBig"":0,""CanSmall"":3,""CanBig"":0,""Seaweed"":2}","{""FishSmall"":2,""FishBig"":1,""CanSmall"":1,""CanBig"":0,""Seaweed"":2}",100,50,-3.333333333,5,3.333333333,-10,7.453559925,9.574271078,2,2,8.333333333,2.120711153,0,-50,"{""FishSmall"":2,""FishBig"":0,""CanSmall"":1,""CanBig"":0,""Seaweed"":0}","{""FishSmall"":1,""FishBig"":0,""CanSmall"":0,""CanBig"":2,""Seaweed"":0}",-3.333333333,-10,1,2440.2,0.923076923,2,2,2,2,2,2,1,2,2,2,1,2,2,100,5,0.966666667,0,0,0,0,1.833333333,1.833333333,-10,-3.333333333,2,0,0,0
6729128,48,Male,1,Adults,4,1,trial_6,,,0,,3745.9,,6160.8,"{""FishSmall"":1,""FishBig"":0,""CanSmall"":2,""CanBig"":0,""Seaweed"":3}","{""FishSmall"":4,""FishBig"":0,""CanSmall"":2,""CanBig"":0,""Seaweed"":0}",0,100,-1.666666667,3.333333333,-6.666666667,3.333333333,6.871842709,9.428090416,3,0,5,2.556247706,-3,100,"{""FishSmall"":1,""FishBig"":0,""CanSmall"":1,""CanBig"":1,""Seaweed"":0}","{""FishSmall"":2,""FishBig"":0,""CanSmall"":1,""CanBig"":0,""Seaweed"":0}",-1.666666667,3.333333333,1,2440.2,0.923076923,2,2,2,2,2,2,1,2,2,2,1,2,2,100,6,0.966666667,0,10,-20,10,1.833333333,1.833333333,3.333333333,-1.666666667,0,0,10,0
6729128,48,Male,1,Adults,4,1,trial_7,,,,,3867.7,,,"{""FishSmall"":0,""FishBig"":0,""CanSmall"":1,""CanBig"":3,""Seaweed"":2}","{""FishSmall"":3,""FishBig"":0,""CanSmall"":0,""CanBig"":0,""Seaweed"":3}",0,0,-11.66666667,5,-6.666666667,10,8.975274679,5,2,3,16.66666667,-3.975274679,1,0,"{""FishSmall"":0,""FishBig"":1,""CanSmall"":0,""CanBig"":2,""Seaweed"":0}","{""FishSmall"":3,""FishBig"":0,""CanSmall"":0,""CanBig"":0,""Seaweed"":0}",-11.66666667,10,1,2440.2,0.923076923,2,2,2,2,2,2,1,2,2,2,1,2,2,100,7,0.966666667,-20,0,0,0,1.833333333,1.833333333,10,-11.66666667,3,0,0,-20
6729128,48,Male,1,Adults,4,1,trial_8,,,0,,4693.6,,3983.8,"{""FishSmall"":0,""FishBig"":0,""CanSmall"":3,""CanBig"":1,""Seaweed"":2}","{""FishSmall"":3,""FishBig"":0,""CanSmall"":1,""CanBig"":0,""Seaweed"":2}",0,50,-8.333333333,3.333333333,-13.33333333,3.333333333,6.871842709,7.453559925,2,2,11.66666667,0.581717216,0,50,"{""FishSmall"":0,""FishBig"":0,""CanSmall"":2,""CanBig"":1,""Seaweed"":0}","{""FishSmall"":1,""FishBig"":1,""CanSmall"":0,""CanBig"":1,""Seaweed"":0}",-8.333333333,3.333333333,1,2440.2,0.923076923,2,2,2,2,2,2,1,2,2,2,1,2,2,100,8,0.966666667,0,20,-20,20,1.833333333,1.833333333,3.333333333,-8.333333333,2,0,20,0
6729128,48,Male,1,Adults,4,1,trial_9,,1,1,,3596.7,8116.5,4287.2,"{""FishSmall"":0,""FishBig"":0,""CanSmall"":1,""CanBig"":2,""Seaweed"":3}","{""FishSmall"":0,""FishBig"":1,""CanSmall"":0,""CanBig"":1,""Seaweed"":4}",50,100,-8.333333333,0,-6.666666667,-6.666666667,8.975274679,11.54700538,3,4,8.333333333,2.571730705,1,50,"{""FishSmall"":1,""FishBig"":0,""CanSmall"":1,""CanBig"":1,""Seaweed"":0}","{""FishSmall"":1,""FishBig"":0,""CanSmall"":1,""CanBig"":1,""Seaweed"":0}",-8.333333333,-6.666666667,1,2440.2,0.923076923,2,2,2,2,2,2,1,2,2,2,1,2,2,100,9,0.966666667,0,0,0,0,1.833333333,1.833333333,-6.666666667,-8.333333333,4,0,0,0
6729128,48,Male,1,Adults,4,0,trial_10,,,,,6301.3,,,"{""FishSmall"":1,""FishBig"":0,""CanSmall"":2,""CanBig"":1,""Seaweed"":2}","{""FishSmall"":1,""FishBig"":0,""CanSmall"":3,""CanBig"":1,""Seaweed"":1}",0,50,-5,-6.666666667,-16.66666667,-3.333333333,9.574271078,9.428090416,2,1,-1.666666667,-0.146180662,-1,50,"{""FishSmall"":0,""FishBig"":0,""CanSmall"":1,""CanBig"":2,""Seaweed"":0}","{""FishSmall"":1,""FishBig"":0,""CanSmall"":2,""CanBig"":0,""Seaweed"":0}",-16.66666667,-6.666666667,1,2440.2,0.923076923,2,2,2,2,2,2,1,2,2,2,1,2,2,100,10,0.966666667,-20,0,0,0,1.833333333,1.833333333,-16.66666667,-6.666666667,2,0,-20,0
6729128,48,Male,1,Adults,4,,catch_1,0,,,3360.2,,,,"{""FishSmall"":4,""FishBig"":2,""CanSmall"":0,""CanBig"":0,""Seaweed"":0}","{""FishSmall"":4,""FishBig"":2,""CanSmall"":0,""CanBig"":0,""Seaweed"":0}",0,0,,,,,,,,,,,,,"{""FishSmall"":2,""FishBig"":1,""CanSmall"":0,""CanBig"":0,""Seaweed"":0}","{""FishSmall"":2,""FishBig"":1,""CanSmall"":0,""CanBig"":0,""Seaweed"":0}",,,1,2440.2,0.923076923,2,2,2,2,2,2,1,2,2,2,1,2,2,100,,0.966666667,,,,,,,,,,,,
6729128,48,Male,1,Adults,4,0,trial_11,,1,1,,2817.7,3230.7,3055.8,"{""FishSmall"":1,""FishBig"":1,""CanSmall"":1,""CanBig"":0,""Seaweed"":3}","{""FishSmall"":0,""FishBig"":0,""CanSmall"":3,""CanBig"":1,""Seaweed"":2}",100,50,3.333333333,-8.333333333,-6.666666667,0,9.428090416,6.871842709,3,2,-11.66666667,-2.556247706,-1,-50,"{""FishSmall"":1,""FishBig"":0,""CanSmall"":1,""CanBig"":1,""Seaweed"":0}","{""FishSmall"":0,""FishBig"":1,""CanSmall"":2,""CanBig"":0,""Seaweed"":0}",-6.666666667,-8.333333333,1,2440.2,0.923076923,2,2,2,2,2,2,1,2,2,2,1,2,2,100,11,0.966666667,0,0,0,0,1.833333333,1.833333333,-6.666666667,-8.333333333,3,0,0,0
6729128,48,Male,1,Adults,4,0,trial_12,,0,1,,2020.2,2832.9,4423.6,"{""FishSmall"":2,""FishBig"":2,""CanSmall"":0,""CanBig"":0,""Seaweed"":2}","{""FishSmall"":1,""FishBig"":0,""CanSmall"":2,""CanBig"":1,""Seaweed"":2}",50,100,10,-5,20,-6.666666667,8.164965809,9.574271078,2,2,-15,1.409305268,0,50,"{""FishSmall"":0,""FishBig"":3,""CanSmall"":0,""CanBig"":0,""Seaweed"":0}","{""FishSmall"":1,""FishBig"":0,""CanSmall"":1,""CanBig"":1,""Seaweed"":0}",20,-5,1,2440.2,0.923076923,2,2,2,2,2,2,1,2,2,2,1,2,2,100,12,0.966666667,20,0,20,0,1.833333333,1.833333333,20,-5,2,0,20,0
6729128,48,Male,1,Adults,4,0,trial_13,,,1,,6057.2,,4912.7,"{""FishSmall"":3,""FishBig"":1,""CanSmall"":1,""CanBig"":0,""Seaweed"":1}","{""FishSmall"":0,""FishBig"":0,""CanSmall"":1,""CanBig"":2,""Seaweed"":3}",50,50,6.666666667,-8.333333333,0,-10,9.428090416,8.975274679,1,3,-15,-0.452815737,2,0,"{""FishSmall"":2,""FishBig"":0,""CanSmall"":0,""CanBig"":1,""Seaweed"":0}","{""FishSmall"":1,""FishBig"":0,""CanSmall"":0,""CanBig"":2,""Seaweed"":0}",0,-8.333333333,1,2440.2,0.923076923,2,2,2,2,2,2,1,2,2,2,1,2,2,100,13,0.966666667,0,0,-20,0,1.833333333,1.833333333,0,-8.333333333,1,0,0,0
6729128,48,Male,1,Adults,4,0,trial_14,,0,,,3375.7,3727.4,,"{""FishSmall"":1,""FishBig"":2,""CanSmall"":0,""CanBig"":0,""Seaweed"":3}","{""FishSmall"":3,""FishBig"":0,""CanSmall"":1,""CanBig"":0,""Seaweed"":2}",50,0,8.333333333,3.333333333,3.333333333,-6.666666667,8.975274679,7.453559925,3,2,-5,-1.521714754,-1,-50,"{""FishSmall"":1,""FishBig"":1,""CanSmall"":0,""CanBig"":1,""Seaweed"":0}","{""FishSmall"":1,""FishBig"":0,""CanSmall"":1,""CanBig"":1,""Seaweed"":0}",3.333333333,3.333333333,1,2440.2,0.923076923,2,2,2,2,2,2,1,2,2,2,1,2,2,100,14,0.966666667,-20,0,-20,0,1.833333333,1.833333333,3.333333333,3.333333333,3,0,-20,0
6729128,48,Male,1,Adults,4,0,trial_15,,1,,,6700,2779.1,,"{""FishSmall"":2,""FishBig"":1,""CanSmall"":1,""CanBig"":0,""Seaweed"":2}","{""FishSmall"":2,""FishBig"":1,""CanSmall"":1,""CanBig"":0,""Seaweed"":2}",50,0,5,5,-3.333333333,3.333333333,9.574271078,9.574271078,2,2,0,0,0,-50,"{""FishSmall"":1,""FishBig"":0,""CanSmall"":2,""CanBig"":0,""Seaweed"":0}","{""FishSmall"":2,""FishBig"":0,""CanSmall"":1,""CanBig"":0,""Seaweed"":0}",-3.333333333,5,1,2440.2,0.923076923,2,2,2,2,2,2,1,2,2,2,1,2,2,100,15,0.966666667,0,-10,0,0,1.833333333,1.833333333,-3.333333333,5,2,0,0,-10
6729128,48,Male,1,Adults,4,0,trial_16,,0,,,1046.2,1398.8,,"{""FishSmall"":5,""FishBig"":0,""CanSmall"":0,""CanBig"":0,""Seaweed"":1}","{""FishSmall"":3,""FishBig"":1,""CanSmall"":1,""CanBig"":0,""Seaweed"":1}",50,50,8.333333333,6.666666667,10,10,3.726779962,9.428090416,1,1,-1.666666667,5.701310453,0,0,"{""FishSmall"":3,""FishBig"":0,""CanSmall"":0,""CanBig"":0,""Seaweed"":0}","{""FishSmall"":3,""FishBig"":0,""CanSmall"":0,""CanBig"":0,""Seaweed"":0}",10,6.666666667,1,2440.2,0.923076923,2,2,2,2,2,2,1,2,2,2,1,2,2,100,16,0.966666667,10,10,10,0,1.833333333,1.833333333,10,6.666666667,1,0,10,10
6729128,48,Male,1,Adults,4,0,trial_17,,,,,2282.1,,,"{""FishSmall"":6,""FishBig"":0,""CanSmall"":0,""CanBig"":0,""Seaweed"":0}","{""FishSmall"":0,""FishBig"":0,""CanSmall"":1,""CanBig"":2,""Seaweed"":3}",0,50,10,-8.333333333,10,0,0,8.975274679,0,3,-18.33333333,8.975274679,3,50,"{""FishSmall"":3,""FishBig"":0,""CanSmall"":0,""CanBig"":0,""Seaweed"":0}","{""FishSmall"":2,""FishBig"":0,""CanSmall"":0,""CanBig"":1,""Seaweed"":0}",10,-8.333333333,1,2440.2,0.923076923,2,2,2,2,2,2,1,2,2,2,1,2,2,100,17,0.966666667,10,0,0,0,1.833333333,1.833333333,10,-8.333333333,0,0,10,0
6729128,48,Male,1,Adults,4,0,trial_18,,0,1,,1347.2,960.8,15307.1,"{""FishSmall"":3,""FishBig"":1,""CanSmall"":1,""CanBig"":0,""Seaweed"":1}","{""FishSmall"":2,""FishBig"":0,""CanSmall"":2,""CanBig"":0,""Seaweed"":2}",100,50,6.666666667,0,13.33333333,3.333333333,9.428090416,8.164965809,1,2,-6.666666667,-1.263124607,1,-50,"{""FishSmall"":2,""FishBig"":1,""CanSmall"":0,""CanBig"":0,""Seaweed"":0}","{""FishSmall"":2,""FishBig"":0,""CanSmall"":1,""CanBig"":0,""Seaweed"":0}",13.33333333,0,1,2440.2,0.923076923,2,2,2,2,2,2,1,2,2,2,1,2,2,100,18,0.966666667,10,0,10,0,1.833333333,1.833333333,13.33333333,0,1,0,10,0
6729128,48,Male,1,Adults,4,0,trial_19,,0,,,3415.1,2491.2,,"{""FishSmall"":3,""FishBig"":0,""CanSmall"":2,""CanBig"":0,""Seaweed"":1}","{""FishSmall"":2,""FishBig"":0,""CanSmall"":3,""CanBig"":0,""Seaweed"":1}",100,0,1.666666667,-1.666666667,6.666666667,-3.333333333,8.975274679,8.975274679,1,1,-3.333333333,0,0,-100,"{""FishSmall"":1,""FishBig"":1,""CanSmall"":1,""CanBig"":0,""Seaweed"":0}","{""FishSmall"":1,""FishBig"":0,""CanSmall"":2,""CanBig"":0,""Seaweed"":0}",6.666666667,-1.666666667,1,2440.2,0.923076923,2,2,2,2,2,2,1,2,2,2,1,2,2,100,19,0.966666667,10,0,-10,-10,1.833333333,1.833333333,6.666666667,-1.666666667,1,0,10,0
6729128,48,Male,1,Adults,4,1,trial_20,,,,,3780,,,"{""FishSmall"":0,""FishBig"":0,""CanSmall"":1,""CanBig"":2,""Seaweed"":3}","{""FishSmall"":1,""FishBig"":0,""CanSmall"":2,""CanBig"":1,""Seaweed"":2}",50,0,-8.333333333,-5,10,3.333333333,8.975274679,9.574271078,3,2,3.333333333,0.598996399,-1,-50,"{""FishSmall"":0,""FishBig"":2,""CanSmall"":1,""CanBig"":0,""Seaweed"":0}","{""FishSmall"":1,""FishBig"":1,""CanSmall"":0,""CanBig"":1,""Seaweed"":0}",-8.333333333,3.333333333,1,2440.2,0.923076923,2,2,2,2,2,2,1,2,2,2,1,2,2,100,20,0.966666667,0,10,20,10,1.833333333,1.833333333,3.333333333,-8.333333333,2,0,10,0
6729128,48,Male,1,Adults,4,,catch_2,1,,,2557.5,,,,"{""FishSmall"":0,""FishBig"":0,""CanSmall"":3,""CanBig"":3,""Seaweed"":0}","{""FishSmall"":0,""FishBig"":0,""CanSmall"":3,""CanBig"":3,""Seaweed"":0}",0,0,,,,,,,,,,,,,"{""FishSmall"":0,""FishBig"":0,""CanSmall"":2,""CanBig"":1,""Seaweed"":0}","{""FishSmall"":0,""FishBig"":0,""CanSmall"":1,""CanBig"":2,""Seaweed"":0}",,,1,2440.2,0.923076923,2,2,2,2,2,2,1,2,2,2,1,2,2,100,,0.966666667,,,,,,,,,,,,
6729128,48,Male,1,Adults,4,1,trial_21,,,1,,6803.2,,2825.3,"{""FishSmall"":0,""FishBig"":0,""CanSmall"":3,""CanBig"":1,""Seaweed"":2}","{""FishSmall"":0,""FishBig"":0,""CanSmall"":3,""CanBig"":1,""Seaweed"":2}",50,100,-8.333333333,-8.333333333,-10,-16.66666667,6.871842709,6.871842709,2,2,0,0,0,50,"{""FishSmall"":0,""FishBig"":0,""CanSmall"":3,""CanBig"":0,""Seaweed"":0}","{""FishSmall"":0,""FishBig"":0,""CanSmall"":1,""CanBig"":2,""Seaweed"":0}",-8.333333333,-16.66666667,1,2440.2,0.923076923,2,2,2,2,2,2,1,2,2,2,1,2,2,100,21,0.966666667,0,0,-10,0,1.833333333,1.833333333,-16.66666667,-8.333333333,2,0,0,0
6729128,48,Male,1,Adults,4,1,trial_22,,,0,,4576.2,,3977.4,"{""FishSmall"":0,""FishBig"":0,""CanSmall"":3,""CanBig"":1,""Seaweed"":2}","{""FishSmall"":2,""FishBig"":1,""CanSmall"":1,""CanBig"":0,""Seaweed"":2}",0,100,-8.333333333,5,-3.333333333,16.66666667,6.871842709,9.574271078,2,2,13.33333333,2.702428368,0,100,"{""FishSmall"":0,""FishBig"":1,""CanSmall"":1,""CanBig"":1,""Seaweed"":0}","{""FishSmall"":1,""FishBig"":2,""CanSmall"":0,""CanBig"":0,""Seaweed"":0}",-8.333333333,16.66666667,1,2440.2,0.923076923,2,2,2,2,2,2,1,2,2,2,1,2,2,100,22,0.966666667,0,20,0,20,1.833333333,1.833333333,16.66666667,-8.333333333,2,0,20,0
6729128,48,Male,1,Adults,4,0,trial_23,,,,,6306.8,,,"{""FishSmall"":3,""FishBig"":0,""CanSmall"":2,""CanBig"":0,""Seaweed"":1}","{""FishSmall"":2,""FishBig"":0,""CanSmall"":3,""CanBig"":0,""Seaweed"":1}",0,0,1.666666667,-1.666666667,-3.333333333,-10,8.975274679,8.975274679,1,1,-3.333333333,0,0,0,"{""FishSmall"":1,""FishBig"":0,""CanSmall"":2,""CanBig"":0,""Seaweed"":0}","{""FishSmall"":0,""FishBig"":0,""CanSmall"":3,""CanBig"":0,""Seaweed"":0}",-3.333333333,-1.666666667,1,2440.2,0.923076923,2,2,2,2,2,2,1,2,2,2,1,2,2,100,23,0.966666667,-10,-10,-10,-10,1.833333333,1.833333333,-3.333333333,-1.666666667,1,0,-10,-10
6729128,48,Male,1,Adults,4,1,trial_24,,1,,,9529.7,3454.7,,"{""FishSmall"":0,""FishBig"":0,""CanSmall"":3,""CanBig"":2,""Seaweed"":1}","{""FishSmall"":4,""FishBig"":1,""CanSmall"":0,""CanBig"":0,""Seaweed"":1}",100,50,-11.66666667,10,-13.33333333,10,6.871842709,5.773502692,1,1,21.66666667,-1.098340017,0,-50,"{""FishSmall"":0,""FishBig"":0,""CanSmall"":2,""CanBig"":1,""Seaweed"":0}","{""FishSmall"":3,""FishBig"":0,""CanSmall"":0,""CanBig"":0,""Seaweed"":0}",-11.66666667,10,1,2440.2,0.923076923,2,2,2,2,2,2,1,2,2,2,1,2,2,100,24,0.966666667,0,10,0,10,1.833333333,1.833333333,10,-11.66666667,1,0,10,0
6729128,48,Male,1,Adults,4,1,trial_25,,1,0,,1401.2,5186.6,2266.7,"{""FishSmall"":0,""FishBig"":0,""CanSmall"":3,""CanBig"":3,""Seaweed"":0}","{""FishSmall"":2,""FishBig"":1,""CanSmall"":0,""CanBig"":0,""Seaweed"":3}",100,100,-15,6.666666667,-16.66666667,13.33333333,5,7.453559925,0,3,21.66666667,2.453559925,3,0,"{""FishSmall"":0,""FishBig"":0,""CanSmall"":1,""CanBig"":2,""Seaweed"":0}","{""FishSmall"":2,""FishBig"":1,""CanSmall"":0,""CanBig"":0,""Seaweed"":0}",-15,13.33333333,1,2440.2,0.923076923,2,2,2,2,2,2,1,2,2,2,1,2,2,100,25,0.966666667,0,10,0,10,1.833333333,1.833333333,13.33333333,-15,3,0,10,0
6729128,48,Male,1,Adults,4,0,trial_26,,0,,,3372.2,2037.4,,"{""FishSmall"":1,""FishBig"":3,""CanSmall"":0,""CanBig"":0,""Seaweed"":2}","{""FishSmall"":4,""FishBig"":0,""CanSmall"":1,""CanBig"":0,""Seaweed"":1}",50,0,11.66666667,5,6.666666667,3.333333333,8.975274679,7.637626158,2,1,-6.666666667,-1.33764852,-1,-50,"{""FishSmall"":0,""FishBig"":2,""CanSmall"":0,""CanBig"":1,""Seaweed"":0}","{""FishSmall"":2,""FishBig"":0,""CanSmall"":1,""CanBig"":0,""Seaweed"":0}",6.666666667,5,1,2440.2,0.923076923,2,2,2,2,2,2,1,2,2,2,1,2,2,100,26,0.966666667,-20,0,20,-10,1.833333333,1.833333333,6.666666667,5,2,0,-20,0
6729128,48,Male,1,Adults,4,1,trial_27,,,1,,5038.2,,3353.8,"{""FishSmall"":2,""FishBig"":0,""CanSmall"":4,""CanBig"":0,""Seaweed"":0}","{""FishSmall"":2,""FishBig"":0,""CanSmall"":2,""CanBig"":0,""Seaweed"":2}",0,50,-3.333333333,0,-3.333333333,-3.333333333,9.428090416,8.164965809,0,2,3.333333333,-1.263124607,2,50,"{""FishSmall"":1,""FishBig"":0,""CanSmall"":2,""CanBig"":0,""Seaweed"":0}","{""FishSmall"":1,""FishBig"":0,""CanSmall"":2,""CanBig"":0,""Seaweed"":0}",-3.333333333,-3.333333333,1,2440.2,0.923076923,2,2,2,2,2,2,1,2,2,2,1,2,2,100,27,0.966666667,0,0,0,0,1.833333333,1.833333333,-3.333333333,-3.333333333,2,0,0,0
6729128,48,Male,1,Adults,4,1,trial_28,,,,,1269.2,,,"{""FishSmall"":4,""FishBig"":1,""CanSmall"":0,""CanBig"":0,""Seaweed"":1}","{""FishSmall"":2,""FishBig"":4,""CanSmall"":0,""CanBig"":0,""Seaweed"":0}",50,50,10,16.66666667,13.33333333,13.33333333,5.773502692,4.714045208,1,0,6.666666667,-1.059457484,-1,0,"{""FishSmall"":2,""FishBig"":1,""CanSmall"":0,""CanBig"":0,""Seaweed"":0}","{""FishSmall"":2,""FishBig"":1,""CanSmall"":0,""CanBig"":0,""Seaweed"":0}",10,13.33333333,1,2440.2,0.923076923,2,2,2,2,2,2,1,2,2,2,1,2,2,100,28,0.966666667,10,0,0,20,1.833333333,1.833333333,13.33333333,10,0,0,0,10
6729128,48,Male,1,Adults,4,1,trial_29,,,0,,877.5,,1345.8,"{""FishSmall"":1,""FishBig"":0,""CanSmall"":2,""CanBig"":1,""Seaweed"":2}","{""FishSmall"":2,""FishBig"":1,""CanSmall"":0,""CanBig"":0,""Seaweed"":3}",0,100,-5,6.666666667,-3.333333333,13.33333333,9.574271078,7.453559925,2,3,11.66666667,-2.120711153,1,100,"{""FishSmall"":1,""FishBig"":0,""CanSmall"":2,""CanBig"":0,""Seaweed"":0}","{""FishSmall"":2,""FishBig"":1,""CanSmall"":0,""CanBig"":0,""Seaweed"":0}",-5,13.33333333,1,2440.2,0.923076923,2,2,2,2,2,2,1,2,2,2,1,2,2,100,29,0.966666667,0,10,0,10,1.833333333,1.833333333,13.33333333,-5,3,0,10,0
6729128,48,Male,1,Adults,4,1,trial_30,,,,,1564,,,"{""FishSmall"":1,""FishBig"":0,""CanSmall"":3,""CanBig"":0,""Seaweed"":2}","{""FishSmall"":1,""FishBig"":4,""CanSmall"":0,""CanBig"":0,""Seaweed"":1}",0,50,-3.333333333,15,-13.33333333,16.66666667,7.453559925,7.637626158,2,1,18.33333333,0.184066233,-1,50,"{""FishSmall"":0,""FishBig"":0,""CanSmall"":2,""CanBig"":1,""Seaweed"":0}","{""FishSmall"":1,""FishBig"":2,""CanSmall"":0,""CanBig"":0,""Seaweed"":0}",-3.333333333,16.66666667,1,2440.2,0.923076923,2,2,2,2,2,2,1,2,2,2,1,2,2,100,30,0.966666667,0,20,0,0,1.833333333,1.833333333,16.66666667,-3.333333333,1,0,20,0
6729171,49,Male,1,Adults,4,1,trial_1,,1,,,3342.8,7017.5,,"{""FishSmall"":1,""FishBig"":0,""CanSmall"":3,""CanBig"":0,""Seaweed"":2}","{""FishSmall"":2,""FishBig"":3,""CanSmall"":0,""CanBig"":0,""Seaweed"":1}",100,50,-3.333333333,13.33333333,-10,6.666666667,7.453559925,7.453559925,2,1,16.66666667,0,-1,-50,"{""FishSmall"":0,""FishBig"":0,""CanSmall"":3,""CanBig"":0,""Seaweed"":0}","{""FishSmall"":1,""FishBig"":1,""CanSmall"":1,""CanBig"":0,""Seaweed"":0}",-3.333333333,6.666666667,1,1039.24,0.961538462,2,2,2,2,2,2,2,2,2,2,1,2,2,100,1,0.970588235,0,10,0,-10,1.333333333,3.5,6.666666667,-3.333333333,1,0,10,0
6729171,49,Male,1,Adults,4,1,trial_2,,,,,5169.3,,,"{""FishSmall"":1,""FishBig"":0,""CanSmall"":4,""CanBig"":1,""Seaweed"":0}","{""FishSmall"":1,""FishBig"":1,""CanSmall"":1,""CanBig"":0,""Seaweed"":3}",0,50,-8.333333333,3.333333333,-10,13.33333333,8.975274679,9.428090416,0,3,11.66666667,0.452815737,3,50,"{""FishSmall"":0,""FishBig"":0,""CanSmall"":3,""CanBig"":0,""Seaweed"":0}","{""FishSmall"":2,""FishBig"":1,""CanSmall"":0,""CanBig"":0,""Seaweed"":0}",-8.333333333,13.33333333,1,1039.24,0.961538462,2,2,2,2,2,2,2,2,2,2,1,2,2,100,2,0.970588235,0,0,-10,10,1.333333333,3.5,13.33333333,-8.333333333,3,0,0,0
6729171,49,Male,1,Adults,4,0,trial_3,,0,1,,4341.2,6547.7,6692.4,"{""FishSmall"":2,""FishBig"":1,""CanSmall"":1,""CanBig"":0,""Seaweed"":2}","{""FishSmall"":1,""FishBig"":0,""CanSmall"":2,""CanBig"":1,""Seaweed"":2}",100,50,5,-5,-3.333333333,-3.333333333,9.574271078,9.574271078,2,2,-10,0,0,-50,"{""FishSmall"":0,""FishBig"":1,""CanSmall"":1,""CanBig"":1,""Seaweed"":0}","{""FishSmall"":1,""FishBig"":0,""CanSmall"":2,""CanBig"":0,""Seaweed"":0}",-3.333333333,-5,1,1039.24,0.961538462,2,2,2,2,2,2,2,2,2,2,1,2,2,100,3,0.970588235,20,0,0,0,1.333333333,3.5,-3.333333333,-5,2,0,20,0
6729171,49,Male,1,Adults,4,1,trial_4,,,0,,5841,,6605.9,"{""FishSmall"":4,""FishBig"":1,""CanSmall"":0,""CanBig"":0,""Seaweed"":1}","{""FishSmall"":1,""FishBig"":3,""CanSmall"":0,""CanBig"":0,""Seaweed"":2}",50,100,10,11.66666667,0,0,5.773502692,8.975274679,1,2,1.666666667,3.201771987,1,50,"{""FishSmall"":2,""FishBig"":0,""CanSmall"":0,""CanBig"":1,""Seaweed"":0}","{""FishSmall"":0,""FishBig"":1,""CanSmall"":2,""CanBig"":0,""Seaweed"":0}",10,0,1,1039.24,0.961538462,2,2,2,2,2,2,2,2,2,2,1,2,2,100,4,0.970588235,0,-10,0,0,1.333333333,3.5,0,10,2,0,-10,0
6729171,49,Male,1,Adults,4,0,trial_5,,0,,,5051.9,24842.2,,"{""FishSmall"":1,""FishBig"":2,""CanSmall"":0,""CanBig"":0,""Seaweed"":3}","{""FishSmall"":2,""FishBig"":1,""CanSmall"":0,""CanBig"":0,""Seaweed"":3}",100,50,8.333333333,6.666666667,13.33333333,3.333333333,8.975274679,7.453559925,3,3,-1.666666667,-1.521714754,0,-50,"{""FishSmall"":2,""FishBig"":1,""CanSmall"":0,""CanBig"":0,""Seaweed"":0}","{""FishSmall"":1,""FishBig"":1,""CanSmall"":0,""CanBig"":1,""Seaweed"":0}",13.33333333,6.666666667,1,1039.24,0.961538462,2,2,2,2,2,2,2,2,2,2,1,2,2,100,5,0.970588235,20,0,10,-20,1.333333333,3.5,13.33333333,6.666666667,3,0,20,0
6729171,49,Male,1,Adults,4,1,trial_6,,,,,43067.4,,,"{""FishSmall"":0,""FishBig"":0,""CanSmall"":2,""CanBig"":2,""Seaweed"":2}","{""FishSmall"":1,""FishBig"":1,""CanSmall"":1,""CanBig"":0,""Seaweed"":3}",50,0,-10,3.333333333,-3.333333333,6.666666667,8.164965809,9.428090416,2,3,13.33333333,1.263124607,1,-50,"{""FishSmall"":1,""FishBig"":0,""CanSmall"":2,""CanBig"":0,""Seaweed"":0}","{""FishSmall"":1,""FishBig"":1,""CanSmall"":1,""CanBig"":0,""Seaweed"":0}",-10,6.666666667,1,1039.24,0.961538462,2,2,2,2,2,2,2,2,2,2,1,2,2,100,6,0.970588235,-10,0,10,0,1.333333333,3.5,6.666666667,-10,3,0,0,-10
6729171,49,Male,1,Adults,4,0,trial_7,,0,,,3335,28331.8,,"{""FishSmall"":3,""FishBig"":0,""CanSmall"":1,""CanBig"":0,""Seaweed"":2}","{""FishSmall"":0,""FishBig"":0,""CanSmall"":3,""CanBig"":1,""Seaweed"":2}",100,50,3.333333333,-8.333333333,3.333333333,-13.33333333,7.453559925,6.871842709,2,2,-11.66666667,-0.581717216,0,-50,"{""FishSmall"":2,""FishBig"":0,""CanSmall"":1,""CanBig"":0,""Seaweed"":0}","{""FishSmall"":0,""FishBig"":0,""CanSmall"":2,""CanBig"":1,""Seaweed"":0}",3.333333333,-8.333333333,1,1039.24,0.961538462,2,2,2,2,2,2,2,2,2,2,1,2,2,100,7,0.970588235,-10,-10,-10,-10,1.333333333,3.5,3.333333333,-8.333333333,2,0,-10,-10
6729171,49,Male,1,Adults,4,0,trial_8,,0,1,,10238.7,5920.9,12699.8,"{""FishSmall"":1,""FishBig"":0,""CanSmall"":2,""CanBig"":0,""Seaweed"":3}","{""FishSmall"":1,""FishBig"":0,""CanSmall"":3,""CanBig"":1,""Seaweed"":1}",50,100,-1.666666667,-6.666666667,13.33333333,-13.33333333,6.871842709,9.428090416,3,1,-5,2.556247706,-2,50,"{""FishSmall"":2,""FishBig"":1,""CanSmall"":0,""CanBig"":0,""Seaweed"":0}","{""FishSmall"":0,""FishBig"":0,""CanSmall"":2,""CanBig"":1,""Seaweed"":0}",13.33333333,-6.666666667,1,1039.24,0.961538462,2,2,2,2,2,2,2,2,2,2,1,2,2,100,8,0.970588235,20,0,10,0,1.333333333,3.5,13.33333333,-6.666666667,3,0,20,0
6729171,49,Male,1,Adults,4,1,trial_9,,1,,,4338.2,21084.2,,"{""FishSmall"":0,""FishBig"":0,""CanSmall"":2,""CanBig"":1,""Seaweed"":3}","{""FishSmall"":2,""FishBig"":1,""CanSmall"":1,""CanBig"":0,""Seaweed"":2}",100,50,-6.666666667,5,-3.333333333,13.33333333,7.453559925,9.574271078,3,2,11.66666667,2.120711153,-1,-50,"{""FishSmall"":0,""FishBig"":1,""CanSmall"":1,""CanBig"":1,""Seaweed"":0}","{""FishSmall"":2,""FishBig"":1,""CanSmall"":0,""CanBig"":0,""Seaweed"":0}",-6.666666667,13.33333333,1,1039.24,0.961538462,2,2,2,2,2,2,2,2,2,2,1,2,2,100,9,0.970588235,0,0,0,20,1.333333333,3.5,13.33333333,-6.666666667,2,0,0,0
6729171,49,Male,1,Adults,4,1,trial_10,,,,,8866.3,,,"{""FishSmall"":0,""FishBig"":0,""CanSmall"":3,""CanBig"":1,""Seaweed"":2}","{""FishSmall"":2,""FishBig"":1,""CanSmall"":1,""CanBig"":0,""Seaweed"":2}",0,0,-8.333333333,5,-13.33333333,13.33333333,6.871842709,9.574271078,2,2,13.33333333,2.702428368,0,0,"{""FishSmall"":0,""FishBig"":0,""CanSmall"":2,""CanBig"":1,""Seaweed"":0}","{""FishSmall"":2,""FishBig"":1,""CanSmall"":0,""CanBig"":0,""Seaweed"":0}",-8.333333333,13.33333333,1,1039.24,0.961538462,2,2,2,2,2,2,2,2,2,2,1,2,2,100,10,0.970588235,-10,0,0,0,1.333333333,3.5,13.33333333,-8.333333333,2,0,0,-10
6729171,49,Male,1,Adults,4,,catch_1,0,,,5694.5,,,,"{""FishSmall"":4,""FishBig"":2,""CanSmall"":0,""CanBig"":0,""Seaweed"":0}","{""FishSmall"":4,""FishBig"":2,""CanSmall"":0,""CanBig"":0,""Seaweed"":0}",0,0,,,,,,,,,,,,,"{""FishSmall"":1,""FishBig"":2,""CanSmall"":0,""CanBig"":0,""Seaweed"":0}","{""FishSmall"":2,""FishBig"":1,""CanSmall"":0,""CanBig"":0,""Seaweed"":0}",,,1,1039.24,0.961538462,2,2,2,2,2,2,2,2,2,2,1,2,2,100,,0.970588235,,,,,,,,,,,,
6729171,49,Male,1,Adults,4,0,trial_11,,,0,,8528,,6652.6,"{""FishSmall"":3,""FishBig"":1,""CanSmall"":0,""CanBig"":0,""Seaweed"":2}","{""FishSmall"":2,""FishBig"":1,""CanSmall"":1,""CanBig"":0,""Seaweed"":2}",0,100,8.333333333,5,3.333333333,6.666666667,6.871842709,9.574271078,2,2,-3.333333333,2.702428368,0,100,"{""FishSmall"":1,""FishBig"":1,""CanSmall"":0,""CanBig"":1,""Seaweed"":0}","{""FishSmall"":1,""FishBig"":1,""CanSmall"":1,""CanBig"":0,""Seaweed"":0}",3.333333333,5,1,1039.24,0.961538462,2,2,2,2,2,2,2,2,2,2,1,2,2,100,11,0.970588235,-20,20,10,10,1.333333333,3.5,3.333333333,5,2,0,-20,20
6729171,49,Male,1,Adults,4,0,trial_12,,1,,,25740,5867.8,,"{""FishSmall"":0,""FishBig"":0,""CanSmall"":2,""CanBig"":2,""Seaweed"":2}","{""FishSmall"":0,""FishBig"":0,""CanSmall"":2,""CanBig"":2,""Seaweed"":2}",50,0,-10,-10,-13.33333333,-6.666666667,8.164965809,8.164965809,2,2,0,0,0,-50,"{""FishSmall"":0,""FishBig"":0,""CanSmall"":2,""CanBig"":1,""Seaweed"":0}","{""FishSmall"":1,""FishBig"":0,""CanSmall"":1,""CanBig"":1,""Seaweed"":0}",-13.33333333,-10,1,1039.24,0.961538462,2,2,2,2,2,2,2,2,2,2,1,2,2,100,12,0.970588235,0,0,0,0,1.333333333,3.5,-13.33333333,-10,2,0,0,0
6729171,49,Male,1,Adults,4,1,trial_13,,0,,,6808,10694.8,,"{""FishSmall"":1,""FishBig"":1,""CanSmall"":1,""CanBig"":0,""Seaweed"":3}","{""FishSmall"":1,""FishBig"":2,""CanSmall"":0,""CanBig"":0,""Seaweed"":3}",50,0,3.333333333,8.333333333,13.33333333,13.33333333,9.428090416,8.975274679,3,3,5,-0.452815737,0,-50,"{""FishSmall"":2,""FishBig"":1,""CanSmall"":0,""CanBig"":0,""Seaweed"":0}","{""FishSmall"":2,""FishBig"":1,""CanSmall"":0,""CanBig"":0,""Seaweed"":0}",3.333333333,13.33333333,1,1039.24,0.961538462,2,2,2,2,2,2,2,2,2,2,1,2,2,100,13,0.970588235,10,0,10,0,1.333333333,3.5,13.33333333,3.333333333,3,0,0,10
6729171,49,Male,1,Adults,4,0,trial_14,,0,0,,9383.2,2683,12851.2,"{""FishSmall"":1,""FishBig"":3,""CanSmall"":0,""CanBig"":0,""Seaweed"":2}","{""FishSmall"":3,""FishBig"":0,""CanSmall"":2,""CanBig"":0,""Seaweed"":1}",50,100,11.66666667,1.666666667,16.66666667,3.333333333,8.975274679,8.975274679,2,1,-10,0,-1,50,"{""FishSmall"":1,""FishBig"":2,""CanSmall"":0,""CanBig"":0,""Seaweed"":0}","{""FishSmall"":2,""FishBig"":0,""CanSmall"":1,""CanBig"":0,""Seaweed"":0}",16.66666667,1.666666667,1,1039.24,0.961538462,2,2,2,2,2,2,2,2,2,2,1,2,2,100,14,0.970588235,10,-10,20,10,1.333333333,3.5,16.66666667,1.666666667,2,0,10,-10
6729171,49,Male,1,Adults,4,0,trial_15,,,1,,3460.9,,20612.6,"{""FishSmall"":1,""FishBig"":3,""CanSmall"":0,""CanBig"":0,""Seaweed"":2}","{""FishSmall"":1,""FishBig"":0,""CanSmall"":3,""CanBig"":1,""Seaweed"":1}",50,100,11.66666667,-6.666666667,20,-13.33333333,8.975274679,9.428090416,2,1,-18.33333333,0.452815737,-1,50,"{""FishSmall"":0,""FishBig"":3,""CanSmall"":0,""CanBig"":0,""Seaweed"":0}","{""FishSmall"":0,""FishBig"":0,""CanSmall"":2,""CanBig"":1,""Seaweed"":0}",20,-6.666666667,1,1039.24,0.961538462,2,2,2,2,2,2,2,2,2,2,1,2,2,100,15,0.970588235,20,0,20,0,1.333333333,3.5,20,-6.666666667,2,0,20,0
6729171,49,Male,1,Adults,4,1,trial_16,,1,1,,2458.6,3331.3,4858.9,"{""FishSmall"":0,""FishBig"":0,""CanSmall"":2,""CanBig"":3,""Seaweed"":1}","{""FishSmall"":0,""FishBig"":0,""CanSmall"":2,""CanBig"":1,""Seaweed"":3}",100,50,-13.33333333,-6.666666667,-16.66666667,-13.33333333,7.453559925,7.453559925,1,3,6.666666667,0,2,-50,"{""FishSmall"":0,""FishBig"":0,""CanSmall"":1,""CanBig"":2,""Seaweed"":0}","{""FishSmall"":0,""FishBig"":0,""CanSmall"":2,""CanBig"":1,""Seaweed"":0}",-13.33333333,-13.33333333,1,1039.24,0.961538462,2,2,2,2,2,2,2,2,2,2,1,2,2,100,16,0.970588235,0,0,0,0,1.333333333,3.5,-13.33333333,-13.33333333,3,0,0,0
6729171,49,Male,1,Adults,4,0,trial_17,,,0,,3929,,3717.8,"{""FishSmall"":2,""FishBig"":3,""CanSmall"":0,""CanBig"":0,""Seaweed"":1}","{""FishSmall"":3,""FishBig"":1,""CanSmall"":0,""CanBig"":0,""Seaweed"":2}",0,50,13.33333333,8.333333333,6.666666667,3.333333333,7.453559925,6.871842709,1,2,-5,-0.581717216,1,50,"{""FishSmall"":1,""FishBig"":1,""CanSmall"":1,""CanBig"":0,""Seaweed"":0}","{""FishSmall"":2,""FishBig"":0,""CanSmall"":1,""CanBig"":0,""Seaweed"":0}",6.666666667,8.333333333,1,1039.24,0.961538462,2,2,2,2,2,2,2,2,2,2,1,2,2,100,17,0.970588235,0,10,0,10,1.333333333,3.5,6.666666667,8.333333333,1,0,0,10
6729171,49,Male,1,Adults,4,1,trial_18,,,0,,4728.8,,944.3,"{""FishSmall"":2,""FishBig"":1,""CanSmall"":1,""CanBig"":0,""Seaweed"":2}","{""FishSmall"":4,""FishBig"":0,""CanSmall"":1,""CanBig"":0,""Seaweed"":1}",50,100,5,5,3.333333333,13.33333333,9.574271078,7.637626158,2,1,0,-1.936644919,-1,50,"{""FishSmall"":2,""FishBig"":0,""CanSmall"":1,""CanBig"":0,""Seaweed"":0}","{""FishSmall"":2,""FishBig"":1,""CanSmall"":0,""CanBig"":0,""Seaweed"":0}",5,13.33333333,1,1039.24,0.961538462,2,2,2,2,2,2,2,2,2,2,1,2,2,100,18,0.970588235,-10,10,0,10,1.333333333,3.5,13.33333333,5,1,0,10,-10
6729171,49,Male,1,Adults,4,0,trial_19,,0,,,6308.3,8305,,"{""FishSmall"":6,""FishBig"":0,""CanSmall"":0,""CanBig"":0,""Seaweed"":0}","{""FishSmall"":0,""FishBig"":0,""CanSmall"":1,""CanBig"":2,""Seaweed"":3}",50,50,10,-8.333333333,10,-13.33333333,0,8.975274679,0,3,-18.33333333,8.975274679,3,0,"{""FishSmall"":3,""FishBig"":0,""CanSmall"":0,""CanBig"":0,""Seaweed"":0}","{""FishSmall"":0,""FishBig"":0,""CanSmall"":2,""CanBig"":1,""Seaweed"":0}",10,-8.333333333,1,1039.24,0.961538462,2,2,2,2,2,2,2,2,2,2,1,2,2,100,19,0.970588235,10,-10,10,0,1.333333333,3.5,10,-8.333333333,0,0,10,-10
6729171,49,Male,1,Adults,4,0,trial_20,,0,1,,11830.5,2576.1,2956.9,"{""FishSmall"":1,""FishBig"":0,""CanSmall"":1,""CanBig"":1,""Seaweed"":3}","{""FishSmall"":0,""FishBig"":0,""CanSmall"":2,""CanBig"":1,""Seaweed"":3}",100,100,-3.333333333,-6.666666667,3.333333333,3.333333333,9.428090416,7.453559925,3,3,-3.333333333,-1.974530491,0,0,"{""FishSmall"":1,""FishBig"":1,""CanSmall"":0,""CanBig"":1,""Seaweed"":0}","{""FishSmall"":1,""FishBig"":1,""CanSmall"":0,""CanBig"":1,""Seaweed"":0}",3.333333333,-6.666666667,1,1039.24,0.961538462,2,2,2,2,2,2,2,2,2,2,1,2,2,100,20,0.970588235,-20,0,20,0,1.333333333,3.5,3.333333333,-6.666666667,3,0,-20,0
6729171,49,Male,1,Adults,4,,catch_2,1,,,5473,,,,"{""FishSmall"":0,""FishBig"":0,""CanSmall"":3,""CanBig"":3,""Seaweed"":0}","{""FishSmall"":0,""FishBig"":0,""CanSmall"":3,""CanBig"":3,""Seaweed"":0}",0,0,,,,,,,,,,,,,"{""FishSmall"":0,""FishBig"":0,""CanSmall"":1,""CanBig"":2,""Seaweed"":0}","{""FishSmall"":0,""FishBig"":0,""CanSmall"":1,""CanBig"":2,""Seaweed"":0}",,,1,1039.24,0.961538462,2,2,2,2,2,2,2,2,2,2,1,2,2,100,,0.970588235,,,,,,,,,,,,
6729171,49,Male,1,Adults,4,0,trial_21,,1,,,1026.1,12006.7,,"{""FishSmall"":1,""FishBig"":0,""CanSmall"":2,""CanBig"":1,""Seaweed"":2}","{""FishSmall"":0,""FishBig"":0,""CanSmall"":3,""CanBig"":3,""Seaweed"":0}",100,50,-5,-15,-16.66666667,-13.33333333,9.574271078,5,2,0,-10,-4.574271078,-2,-50,"{""FishSmall"":0,""FishBig"":0,""CanSmall"":1,""CanBig"":2,""Seaweed"":0}","{""FishSmall"":0,""FishBig"":0,""CanSmall"":2,""CanBig"":1,""Seaweed"":0}",-16.66666667,-15,1,1039.24,0.961538462,2,2,2,2,2,2,2,2,2,2,1,2,2,100,21,0.970588235,0,0,0,-10,1.333333333,3.5,-16.66666667,-15,2,0,0,0
6729171,49,Male,1,Adults,4,1,trial_22,,0,0,,3333.5,3360.5,1733.1,"{""FishSmall"":2,""FishBig"":1,""CanSmall"":0,""CanBig"":0,""Seaweed"":3}","{""FishSmall"":3,""FishBig"":1,""CanSmall"":1,""CanBig"":0,""Seaweed"":1}",100,100,6.666666667,6.666666667,16.66666667,3.333333333,7.453559925,9.428090416,3,1,0,1.974530491,-2,0,"{""FishSmall"":1,""FishBig"":2,""CanSmall"":0,""CanBig"":0,""Seaweed"":0}","{""FishSmall"":2,""FishBig"":0,""CanSmall"":1,""CanBig"":0,""Seaweed"":0}",6.666666667,3.333333333,1,1039.24,0.961538462,2,2,2,2,2,2,2,2,2,2,1,2,2,100,22,0.970588235,20,10,20,-10,1.333333333,3.5,3.333333333,6.666666667,1,0,10,20
6729171,49,Male,1,Adults,4,1,trial_23,,,,,3284.7,,,"{""FishSmall"":2,""FishBig"":0,""CanSmall"":3,""CanBig"":0,""Seaweed"":1}","{""FishSmall"":0,""FishBig"":1,""CanSmall"":0,""CanBig"":1,""Seaweed"":4}",50,50,-1.666666667,0,-3.333333333,16.66666667,8.975274679,11.54700538,1,4,1.666666667,2.571730705,3,0,"{""FishSmall"":1,""FishBig"":0,""CanSmall"":2,""CanBig"":0,""Seaweed"":0}","{""FishSmall"":1,""FishBig"":2,""CanSmall"":0,""CanBig"":0,""Seaweed"":0}",-1.666666667,16.66666667,1,1039.24,0.961538462,2,2,2,2,2,2,2,2,2,2,1,2,2,100,23,0.970588235,0,20,10,10,1.333333333,3.5,16.66666667,-1.666666667,4,0,20,0
6729171,49,Male,1,Adults,4,0,trial_24,,0,1,,3691,3196.6,4405.3,"{""FishSmall"":3,""FishBig"":1,""CanSmall"":0,""CanBig"":0,""Seaweed"":2}","{""FishSmall"":0,""FishBig"":0,""CanSmall"":4,""CanBig"":2,""Seaweed"":0}",100,50,8.333333333,-13.33333333,3.333333333,-10,6.871842709,4.714045208,2,0,-21.66666667,-2.157797501,-2,-50,"{""FishSmall"":1,""FishBig"":1,""CanSmall"":0,""CanBig"":1,""Seaweed"":0}","{""FishSmall"":0,""FishBig"":0,""CanSmall"":3,""CanBig"":0,""Seaweed"":0}",3.333333333,-13.33333333,1,1039.24,0.961538462,2,2,2,2,2,2,2,2,2,2,1,2,2,100,24,0.970588235,10,0,20,0,1.333333333,3.5,3.333333333,-13.33333333,2,0,10,0
6729171,49,Male,1,Adults,4,1,trial_25,,,1,,4693.6,,3678.7,"{""FishSmall"":3,""FishBig"":3,""CanSmall"":0,""CanBig"":0,""Seaweed"":0}","{""FishSmall"":0,""FishBig"":0,""CanSmall"":1,""CanBig"":3,""Seaweed"":2}",0,100,15,-11.66666667,16.66666667,-20,5,8.975274679,0,2,-26.66666667,3.975274679,2,100,"{""FishSmall"":1,""FishBig"":2,""CanSmall"":0,""CanBig"":0,""Seaweed"":0}","{""FishSmall"":0,""FishBig"":0,""CanSmall"":0,""CanBig"":3,""Seaweed"":0}",15,-20,1,1039.24,0.961538462,2,2,2,2,2,2,2,2,2,2,1,2,2,100,25,0.970588235,0,0,20,0,1.333333333,3.5,-20,15,2,0,0,0
6729171,49,Male,1,Adults,4,1,trial_26,,1,,,3970.2,3524.2,,"{""FishSmall"":0,""FishBig"":0,""CanSmall"":2,""CanBig"":3,""Seaweed"":1}","{""FishSmall"":2,""FishBig"":1,""CanSmall"":1,""CanBig"":0,""Seaweed"":2}",100,0,-13.33333333,5,-16.66666667,3.333333333,7.453559925,9.574271078,1,2,18.33333333,2.120711153,1,-100,"{""FishSmall"":0,""FishBig"":0,""CanSmall"":1,""CanBig"":2,""Seaweed"":0}","{""FishSmall"":2,""FishBig"":0,""CanSmall"":1,""CanBig"":0,""Seaweed"":0}",-13.33333333,3.333333333,1,1039.24,0.961538462,2,2,2,2,2,2,2,2,2,2,1,2,2,100,26,0.970588235,0,0,0,-10,1.333333333,3.5,3.333333333,-13.33333333,2,0,0,0
6729171,49,Male,1,Adults,4,1,trial_27,,0,1,,3421.2,3799.2,3319.4,"{""FishSmall"":3,""FishBig"":1,""CanSmall"":0,""CanBig"":0,""Seaweed"":2}","{""FishSmall"":0,""FishBig"":0,""CanSmall"":1,""CanBig"":2,""Seaweed"":3}",100,100,8.333333333,-8.333333333,10,-13.33333333,6.871842709,8.975274679,2,3,-16.66666667,2.103431969,1,0,"{""FishSmall"":3,""FishBig"":0,""CanSmall"":0,""CanBig"":0,""Seaweed"":0}","{""FishSmall"":0,""FishBig"":0,""CanSmall"":2,""CanBig"":1,""Seaweed"":0}",8.333333333,-13.33333333,1,1039.24,0.961538462,2,2,2,2,2,2,2,2,2,2,1,2,2,100,27,0.970588235,10,0,10,0,1.333333333,3.5,-13.33333333,8.333333333,3,0,0,10
6729171,49,Male,1,Adults,4,0,trial_28,,0,,,3759.9,3751.6,,"{""FishSmall"":2,""FishBig"":0,""CanSmall"":1,""CanBig"":0,""Seaweed"":3}","{""FishSmall"":1,""FishBig"":0,""CanSmall"":3,""CanBig"":0,""Seaweed"":2}",100,50,1.666666667,-3.333333333,13.33333333,-3.333333333,6.871842709,7.453559925,3,2,-5,0.581717216,-1,-50,"{""FishSmall"":2,""FishBig"":1,""CanSmall"":0,""CanBig"":0,""Seaweed"":0}","{""FishSmall"":1,""FishBig"":0,""CanSmall"":2,""CanBig"":0,""Seaweed"":0}",13.33333333,-3.333333333,1,1039.24,0.961538462,2,2,2,2,2,2,2,2,2,2,1,2,2,100,28,0.970588235,20,-10,10,-10,1.333333333,3.5,13.33333333,-3.333333333,3,0,20,-10
6729171,49,Male,1,Adults,4,0,trial_29,,1,,,15419.6,3129,,"{""FishSmall"":0,""FishBig"":0,""CanSmall"":2,""CanBig"":2,""Seaweed"":2}","{""FishSmall"":1,""FishBig"":0,""CanSmall"":2,""CanBig"":1,""Seaweed"":2}",100,50,-10,-5,-13.33333333,-10,8.164965809,9.574271078,2,2,5,1.409305268,0,-50,"{""FishSmall"":0,""FishBig"":0,""CanSmall"":2,""CanBig"":1,""Seaweed"":0}","{""FishSmall"":0,""FishBig"":0,""CanSmall"":3,""CanBig"":0,""Seaweed"":0}",-13.33333333,-5,1,1039.24,0.961538462,2,2,2,2,2,2,2,2,2,2,1,2,2,100,29,0.970588235,0,-10,0,0,1.333333333,3.5,-13.33333333,-5,2,0,0,-10
6729171,49,Male,1,Adults,4,1,trial_30,,,0,,25447.8,,3062.7,"{""FishSmall"":0,""FishBig"":0,""CanSmall"":1,""CanBig"":3,""Seaweed"":2}","{""FishSmall"":1,""FishBig"":2,""CanSmall"":0,""CanBig"":0,""Seaweed"":3}",0,100,-11.66666667,8.333333333,-16.66666667,10,8.975274679,8.975274679,2,3,20,0,1,100,"{""FishSmall"":0,""FishBig"":0,""CanSmall"":1,""CanBig"":2,""Seaweed"":0}","{""FishSmall"":0,""FishBig"":2,""CanSmall"":1,""CanBig"":0,""Seaweed"":0}",-11.66666667,10,1,1039.24,0.961538462,2,2,2,2,2,2,2,2,2,2,1,2,2,100,30,0.970588235,-20,-10,0,20,1.333333333,3.5,10,-11.66666667,3,0,-10,-20
6730158,27,Male,1,Adults,4,0,trial_1,,0,1,,2688.2,1064.5,988.0999999,"{""FishSmall"":2,""FishBig"":0,""CanSmall"":2,""CanBig"":0,""Seaweed"":2}","{""FishSmall"":0,""FishBig"":0,""CanSmall"":3,""CanBig"":2,""Seaweed"":1}",100,100,0,-11.66666667,6.666666667,-13.33333333,8.164965809,6.871842709,2,1,-11.66666667,-1.2931231,-1,0,"{""FishSmall"":1,""FishBig"":1,""CanSmall"":1,""CanBig"":0,""Seaweed"":0}","{""FishSmall"":0,""FishBig"":0,""CanSmall"":2,""CanBig"":1,""Seaweed"":0}",6.666666667,-11.66666667,1,639.39,1,2,2,2,2,2,2,2,2,2,2,2,2,2,100,1,1,10,0,20,0,3.833333333,1.666666667,6.666666667,-11.66666667,2,0,10,0
6730158,27,Male,1,Adults,4,0,trial_2,,1,1,,3016.2,916.2,2135.9,"{""FishSmall"":0,""FishBig"":0,""CanSmall"":0,""CanBig"":4,""Seaweed"":2}","{""FishSmall"":1,""FishBig"":0,""CanSmall"":4,""CanBig"":1,""Seaweed"":0}",100,100,-13.33333333,-8.333333333,-20,-3.333333333,9.428090416,8.975274679,2,0,5,-0.452815737,-2,0,"{""FishSmall"":0,""FishBig"":0,""CanSmall"":0,""CanBig"":3,""Seaweed"":0}","{""FishSmall"":1,""FishBig"":0,""CanSmall"":2,""CanBig"":0,""Seaweed"":0}",-20,-8.333333333,1,639.39,1,2,2,2,2,2,2,2,2,2,2,2,2,2,100,2,1,0,0,0,0,3.833333333,1.666666667,-20,-8.333333333,2,0,0,0
6730158,27,Male,1,Adults,4,0,trial_3,,,1,,1985.1,,2344.5,"{""FishSmall"":1,""FishBig"":0,""CanSmall"":2,""CanBig"":1,""Seaweed"":2}","{""FishSmall"":0,""FishBig"":0,""CanSmall"":2,""CanBig"":1,""Seaweed"":3}",50,50,-5,-6.666666667,6.666666667,-13.33333333,9.574271078,7.453559925,2,3,-1.666666667,-2.120711153,1,0,"{""FishSmall"":1,""FishBig"":1,""CanSmall"":1,""CanBig"":0,""Seaweed"":0}","{""FishSmall"":0,""FishBig"":0,""CanSmall"":2,""CanBig"":1,""Seaweed"":0}",6.666666667,-6.666666667,1,639.39,1,2,2,2,2,2,2,2,2,2,2,2,2,2,100,3,1,0,0,-10,0,3.833333333,1.666666667,6.666666667,-6.666666667,2,0,0,0
6730158,27,Male,1,Adults,4,1,trial_4,,,1,,679.4000001,,730,"{""FishSmall"":0,""FishBig"":0,""CanSmall"":3,""CanBig"":1,""Seaweed"":2}","{""FishSmall"":1,""FishBig"":0,""CanSmall"":3,""CanBig"":1,""Seaweed"":1}",0,100,-8.333333333,-6.666666667,0,-13.33333333,6.871842709,9.428090416,2,1,1.666666667,2.556247706,-1,100,"{""FishSmall"":0,""FishBig"":1,""CanSmall"":2,""CanBig"":0,""Seaweed"":0}","{""FishSmall"":0,""FishBig"":0,""CanSmall"":2,""CanBig"":1,""Seaweed"":0}",-8.333333333,-13.33333333,1,639.39,1,2,2,2,2,2,2,2,2,2,2,2,2,2,100,4,1,0,0,-10,0,3.833333333,1.666666667,-13.33333333,-8.333333333,1,0,0,0
6730158,27,Male,1,Adults,4,0,trial_5,,0,1,,1947.3,1400.9,1724.4,"{""FishSmall"":1,""FishBig"":0,""CanSmall"":3,""CanBig"":0,""Seaweed"":2}","{""FishSmall"":1,""FishBig"":0,""CanSmall"":3,""CanBig"":0,""Seaweed"":2}",100,100,-3.333333333,-3.333333333,0,3.333333333,7.453559925,7.453559925,2,2,0,0,0,0,"{""FishSmall"":0,""FishBig"":1,""CanSmall"":2,""CanBig"":0,""Seaweed"":0}","{""FishSmall"":2,""FishBig"":0,""CanSmall"":1,""CanBig"":0,""Seaweed"":0}",0,-3.333333333,1,639.39,1,2,2,2,2,2,2,2,2,2,2,2,2,2,100,5,1,-10,0,0,0,3.833333333,1.666666667,0,-3.333333333,2,0,-10,0
6730158,27,Male,1,Adults,4,1,trial_6,,,0,,3505,,1151.1,"{""FishSmall"":0,""FishBig"":0,""CanSmall"":2,""CanBig"":3,""Seaweed"":1}","{""FishSmall"":2,""FishBig"":1,""CanSmall"":1,""CanBig"":0,""Seaweed"":2}",50,100,-13.33333333,5,-20,6.666666667,7.453559925,9.574271078,1,2,18.33333333,2.120711153,1,50,"{""FishSmall"":0,""FishBig"":0,""CanSmall"":0,""CanBig"":3,""Seaweed"":0}","{""FishSmall"":1,""FishBig"":1,""CanSmall"":1,""CanBig"":0,""Seaweed"":0}",-13.33333333,6.666666667,1,639.39,1,2,2,2,2,2,2,2,2,2,2,2,2,2,100,6,1,-20,10,0,10,3.833333333,1.666666667,6.666666667,-13.33333333,2,0,10,-20
6730158,27,Male,1,Adults,4,0,trial_7,,0,,,2522.2,1520.6,,"{""FishSmall"":0,""FishBig"":0,""CanSmall"":1,""CanBig"":2,""Seaweed"":3}","{""FishSmall"":0,""FishBig"":0,""CanSmall"":4,""CanBig"":1,""Seaweed"":1}",50,0,-8.333333333,-10,6.666666667,-10,8.975274679,5.773502692,3,1,-1.666666667,-3.201771987,-2,-50,"{""FishSmall"":1,""FishBig"":1,""CanSmall"":1,""CanBig"":0,""Seaweed"":0}","{""FishSmall"":0,""FishBig"":0,""CanSmall"":3,""CanBig"":0,""Seaweed"":0}",6.666666667,-10,1,639.39,1,2,2,2,2,2,2,2,2,2,2,2,2,2,100,7,1,20,-10,-10,0,3.833333333,1.666666667,6.666666667,-10,3,0,20,-10
