subject_ID,age_in_years,age_in_months,gender,gender_coded,age_group,age_group_coded,info_choice,condition,catch_trials,fishing_choiceL,fishing_choiceR,RT_catch,RT_info_choice,RT_fishingR,RT_fishingL,items_countL,items_countR,agency_probL,agency_probR,EV_L,EV_R,SD_L,SD_R,uncertainty_level_L,uncertainty_level_R,delta_EV,delta_SD,delta_uncertainty_level,delta_agency,items_count_flashL,items_count_flashR,wob,avg_wob_RT,percent_comprehension,q1  ,q2  ,q3  ,q4  ,q5  ,q6  ,q7  ,q8  ,q9  ,q10  ,q11  ,q12  ,q13  ,catch_trials_score,trial_number,prop_correct_fishing
3626472,5,63,Male,1,4-May,0,1,trial_1,,,0,,1843.39,4537.295,,"{""FishSmall"":0,""FishBig"":1,""CanSmall"":0,""CanBig"":1,""Seaweed"":4}","{""FishSmall"":0,""FishBig"":0,""CanSmall"":1,""CanBig"":3,""Seaweed"":2}",0,50,0,-11.66666667,11.54700538,8.975274679,4,2,-11.66666667,-2.571730705,-2,50,"{""FishSmall"":1,""FishBig"":2,""CanSmall"":0,""CanBig"":0,""Seaweed"":0}","{""FishSmall"":1,""FishBig"":0,""CanSmall"":2,""CanBig"":0,""Seaweed"":0}",0.9,1713.9435,0.884615385,2,2,2,2,2,1,0,2,2,2,2,2,2,100,1,0.4
3626472,5,63,Male,1,4-May,0,0,trial_2,,0,,,3144.02,,2935.17,"{""FishSmall"":3,""FishBig"":0,""CanSmall"":2,""CanBig"":0,""Seaweed"":1}","{""FishSmall"":2,""FishBig"":3,""CanSmall"":0,""CanBig"":0,""Seaweed"":1}",0,50,1.666666667,13.33333333,8.975274679,7.453559925,1,1,11.66666667,-1.521714754,0,50,"{""FishSmall"":1,""FishBig"":0,""CanSmall"":2,""CanBig"":0,""Seaweed"":0}","{""FishSmall"":1,""FishBig"":2,""CanSmall"":0,""CanBig"":0,""Seaweed"":0}",0.9,1713.9435,0.884615385,2,2,2,2,2,1,0,2,2,2,2,2,2,100,2,0.4
3626472,5,63,Male,1,4-May,0,1,trial_3,,0,1,,3389.505,1547.645,4167.92,"{""FishSmall"":1,""FishBig"":0,""CanSmall"":3,""CanBig"":0,""Seaweed"":2}","{""FishSmall"":1,""FishBig"":4,""CanSmall"":0,""CanBig"":0,""Seaweed"":1}",100,100,-3.333333333,15,7.453559925,7.637626158,2,1,18.33333333,0.184066233,-1,0,"{""FishSmall"":1,""FishBig"":0,""CanSmall"":2,""CanBig"":0,""Seaweed"":0}","{""FishSmall"":0,""FishBig"":3,""CanSmall"":0,""CanBig"":0,""Seaweed"":0}",0.9,1713.9435,0.884615385,2,2,2,2,2,1,0,2,2,2,2,2,2,100,3,0.4
3626472,5,63,Male,1,4-May,0,1,trial_4,,0,0,,4405.85,5279.63,3618.805,"{""FishSmall"":3,""FishBig"":0,""CanSmall"":1,""CanBig"":0,""Seaweed"":2}","{""FishSmall"":1,""FishBig"":0,""CanSmall"":2,""CanBig"":1,""Seaweed"":2}",100,100,3.333333333,-5,7.453559925,9.574271078,2,2,-8.333333333,2.120711153,0,0,"{""FishSmall"":2,""FishBig"":0,""CanSmall"":1,""CanBig"":0,""Seaweed"":0}","{""FishSmall"":2,""FishBig"":0,""CanSmall"":0,""CanBig"":1,""Seaweed"":0}",0.9,1713.9435,0.884615385,2,2,2,2,2,1,0,2,2,2,2,2,2,100,4,0.4
3626472,5,63,Male,1,4-May,0,1,trial_5,,,,,1994.035,,,"{""FishSmall"":1,""FishBig"":0,""CanSmall"":2,""CanBig"":1,""Seaweed"":2}","{""FishSmall"":1,""FishBig"":1,""CanSmall"":1,""CanBig"":0,""Seaweed"":3}",0,0,-5,3.333333333,9.574271078,9.428090416,2,3,8.333333333,-0.146180662,1,0,"{""FishSmall"":0,""FishBig"":1,""CanSmall"":1,""CanBig"":1,""Seaweed"":0}","{""FishSmall"":1,""FishBig"":2,""CanSmall"":0,""CanBig"":0,""Seaweed"":0}",0.9,1713.9435,0.884615385,2,2,2,2,2,1,0,2,2,2,2,2,2,100,5,0.4
3626472,5,63,Male,1,4-May,0,1,trial_6,,,0,,4605.07,3127.29,,"{""FishSmall"":2,""FishBig"":0,""CanSmall"":2,""CanBig"":0,""Seaweed"":2}","{""FishSmall"":2,""FishBig"":0,""CanSmall"":1,""CanBig"":0,""Seaweed"":3}",0,100,0,1.666666667,8.164965809,6.871842709,2,3,1.666666667,-1.2931231,1,100,"{""FishSmall"":1,""FishBig"":1,""CanSmall"":1,""CanBig"":0,""Seaweed"":0}","{""FishSmall"":1,""FishBig"":1,""CanSmall"":1,""CanBig"":0,""Seaweed"":0}",0.9,1713.9435,0.884615385,2,2,2,2,2,1,0,2,2,2,2,2,2,100,6,0.4
3626472,5,63,Male,1,4-May,0,1,trial_7,,,,,2534.23,,,"{""FishSmall"":2,""FishBig"":1,""CanSmall"":0,""CanBig"":0,""Seaweed"":3}","{""FishSmall"":2,""FishBig"":0,""CanSmall"":2,""CanBig"":0,""Seaweed"":2}",0,0,6.666666667,0,7.453559925,8.164965809,3,2,-6.666666667,0.711405884,-1,0,"{""FishSmall"":1,""FishBig"":2,""CanSmall"":0,""CanBig"":0,""Seaweed"":0}","{""FishSmall"":2,""FishBig"":0,""CanSmall"":1,""CanBig"":0,""Seaweed"":0}",0.9,1713.9435,0.884615385,2,2,2,2,2,1,0,2,2,2,2,2,2,100,7,0.4
3626472,5,63,Male,1,4-May,0,1,trial_8,,,,,3549.1,,,"{""FishSmall"":3,""FishBig"":1,""CanSmall"":0,""CanBig"":0,""Seaweed"":2}","{""FishSmall"":1,""FishBig"":0,""CanSmall"":3,""CanBig"":1,""Seaweed"":1}",0,0,8.333333333,-6.666666667,6.871842709,9.428090416,2,1,-15,2.556247706,-1,0,"{""FishSmall"":2,""FishBig"":0,""CanSmall"":0,""CanBig"":1,""Seaweed"":0}","{""FishSmall"":1,""FishBig"":0,""CanSmall"":2,""CanBig"":0,""Seaweed"":0}",0.9,1713.9435,0.884615385,2,2,2,2,2,1,0,2,2,2,2,2,2,100,8,0.4
3626472,5,63,Male,1,4-May,0,1,trial_9,,0,,,12414.065,,7867.525,"{""FishSmall"":2,""FishBig"":0,""CanSmall"":1,""CanBig"":0,""Seaweed"":3}","{""FishSmall"":3,""FishBig"":1,""CanSmall"":1,""CanBig"":0,""Seaweed"":1}",50,50,1.666666667,6.666666667,6.871842709,9.428090416,3,1,5,2.556247706,-2,0,"{""FishSmall"":1,""FishBig"":1,""CanSmall"":1,""CanBig"":0,""Seaweed"":0}","{""FishSmall"":1,""FishBig"":2,""CanSmall"":0,""CanBig"":0,""Seaweed"":0}",0.9,1713.9435,0.884615385,2,2,2,2,2,1,0,2,2,2,2,2,2,100,9,0.4
3626472,5,63,Male,1,4-May,0,1,trial_10,,0,,,4983.335,,3938.82,"{""FishSmall"":3,""FishBig"":0,""CanSmall"":0,""CanBig"":0,""Seaweed"":3}","{""FishSmall"":4,""FishBig"":2,""CanSmall"":0,""CanBig"":0,""Seaweed"":0}",100,0,5,13.33333333,5,4.714045208,3,0,8.333333333,-0.285954792,-3,-100,"{""FishSmall"":3,""FishBig"":0,""CanSmall"":0,""CanBig"":0,""Seaweed"":0}","{""FishSmall"":2,""FishBig"":1,""CanSmall"":0,""CanBig"":0,""Seaweed"":0}",0.9,1713.9435,0.884615385,2,2,2,2,2,1,0,2,2,2,2,2,2,100,10,0.4
3626472,,,,,,,,catch_1,0,,,8022.175,,,,"{""FishSmall"":4,""FishBig"":2,""CanSmall"":0,""CanBig"":0,""Seaweed"":0}","{""FishSmall"":4,""FishBig"":2,""CanSmall"":0,""CanBig"":0,""Seaweed"":0}",0,0,,,,,,,,,,,"{""FishSmall"":2,""FishBig"":1,""CanSmall"":0,""CanBig"":0,""Seaweed"":0}","{""FishSmall"":2,""FishBig"":1,""CanSmall"":0,""CanBig"":0,""Seaweed"":0}",,,,,,,,,,,,,,,,,100,11,0.4
3626472,5,63,Male,1,4-May,0,0,trial_11,,0,0,,6277.15,4925.165,2522.29,"{""FishSmall"":1,""FishBig"":0,""CanSmall"":3,""CanBig"":1,""Seaweed"":1}","{""FishSmall"":1,""FishBig"":0,""CanSmall"":2,""CanBig"":1,""Seaweed"":2}",0,100,-6.666666667,-5,9.428090416,9.574271078,1,2,1.666666667,0.146180662,1,100,"{""FishSmall"":2,""FishBig"":0,""CanSmall"":1,""CanBig"":0,""Seaweed"":0}","{""FishSmall"":0,""FishBig"":0,""CanSmall"":2,""CanBig"":1,""Seaweed"":0}",0.9,1713.9435,0.884615385,2,2,2,2,2,1,0,2,2,2,2,2,2,100,12,0.4
3626472,5,63,Male,1,4-May,0,0,trial_12,,,0,,7044.405,3561.835,,"{""FishSmall"":2,""FishBig"":0,""CanSmall"":1,""CanBig"":0,""Seaweed"":3}","{""FishSmall"":1,""FishBig"":0,""CanSmall"":2,""CanBig"":1,""Seaweed"":2}",50,50,1.666666667,-5,6.871842709,9.574271078,3,2,-6.666666667,2.702428368,-1,0,"{""FishSmall"":1,""FishBig"":0,""CanSmall"":2,""CanBig"":0,""Seaweed"":0}","{""FishSmall"":3,""FishBig"":0,""CanSmall"":0,""CanBig"":0,""Seaweed"":0}",0.9,1713.9435,0.884615385,2,2,2,2,2,1,0,2,2,2,2,2,2,100,13,0.4
3626472,5,63,Male,1,4-May,0,1,trial_13,,,,,6226.02,,,"{""FishSmall"":1,""FishBig"":0,""CanSmall"":1,""CanBig"":1,""Seaweed"":3}","{""FishSmall"":2,""FishBig"":1,""CanSmall"":1,""CanBig"":0,""Seaweed"":2}",0,0,-3.333333333,5,9.428090416,9.574271078,3,2,8.333333333,0.146180662,-1,0,"{""FishSmall"":1,""FishBig"":1,""CanSmall"":0,""CanBig"":1,""Seaweed"":0}","{""FishSmall"":1,""FishBig"":1,""CanSmall"":1,""CanBig"":0,""Seaweed"":0}",0.9,1713.9435,0.884615385,2,2,2,2,2,1,0,2,2,2,2,2,2,100,14,0.4
3626472,5,63,Male,1,4-May,0,1,trial_14,,,,,5222.23,,,"{""FishSmall"":0,""FishBig"":0,""CanSmall"":4,""CanBig"":2,""Seaweed"":0}","{""FishSmall"":1,""FishBig"":0,""CanSmall"":1,""CanBig"":1,""Seaweed"":3}",0,0,-13.33333333,-3.333333333,4.714045208,9.428090416,0,3,10,4.714045208,3,0,"{""FishSmall"":0,""FishBig"":0,""CanSmall"":2,""CanBig"":1,""Seaweed"":0}","{""FishSmall"":2,""FishBig"":0,""CanSmall"":0,""CanBig"":1,""Seaweed"":0}",0.9,1713.9435,0.884615385,2,2,2,2,2,1,0,2,2,2,2,2,2,100,15,0.4
3626472,5,63,Male,1,4-May,0,0,trial_15,,0,,,3974.095,,11211.13,"{""FishSmall"":2,""FishBig"":2,""CanSmall"":0,""CanBig"":0,""Seaweed"":2}","{""FishSmall"":1,""FishBig"":0,""CanSmall"":1,""CanBig"":1,""Seaweed"":3}",50,0,10,-3.333333333,8.164965809,9.428090416,2,3,-13.33333333,1.263124607,1,-50,"{""FishSmall"":1,""FishBig"":0,""CanSmall"":1,""CanBig"":1,""Seaweed"":0}","{""FishSmall"":1,""FishBig"":0,""CanSmall"":0,""CanBig"":2,""Seaweed"":0}",0.9,1713.9435,0.884615385,2,2,2,2,2,1,0,2,2,2,2,2,2,100,16,0.4
3626472,5,63,Male,1,4-May,0,0,trial_16,,0,0,,7362.645,3221.63,1842.39,"{""FishSmall"":1,""FishBig"":0,""CanSmall"":1,""CanBig"":1,""Seaweed"":3}","{""FishSmall"":1,""FishBig"":0,""CanSmall"":3,""CanBig"":1,""Seaweed"":1}",100,50,-3.333333333,-6.666666667,9.428090416,9.428090416,3,1,-3.333333333,-1.78E-15,-2,-50,"{""FishSmall"":1,""FishBig"":0,""CanSmall"":1,""CanBig"":1,""Seaweed"":0}","{""FishSmall"":1,""FishBig"":0,""CanSmall"":2,""CanBig"":0,""Seaweed"":0}",0.9,1713.9435,0.884615385,2,2,2,2,2,1,0,2,2,2,2,2,2,100,17,0.4
3626472,5,63,Male,1,4-May,0,1,trial_17,,0,,,1784.885,,3840.1,"{""FishSmall"":2,""FishBig"":3,""CanSmall"":0,""CanBig"":0,""Seaweed"":1}","{""FishSmall"":3,""FishBig"":0,""CanSmall"":0,""CanBig"":0,""Seaweed"":3}",100,0,13.33333333,5,7.453559925,5,1,3,-8.333333333,-2.453559925,2,-100,"{""FishSmall"":1,""FishBig"":2,""CanSmall"":0,""CanBig"":0,""Seaweed"":0}","{""FishSmall"":2,""FishBig"":1,""CanSmall"":0,""CanBig"":0,""Seaweed"":0}",0.9,1713.9435,0.884615385,2,2,2,2,2,1,0,2,2,2,2,2,2,100,18,0.4
3626472,5,63,Male,1,4-May,0,1,trial_18,,0,0,,3042.67,1918.925,2130,"{""FishSmall"":1,""FishBig"":0,""CanSmall"":4,""CanBig"":1,""Seaweed"":0}","{""FishSmall"":1,""FishBig"":0,""CanSmall"":1,""CanBig"":1,""Seaweed"":3}",50,100,-8.333333333,-3.333333333,8.975274679,9.428090416,0,3,5,0.452815737,3,50,"{""FishSmall"":1,""FishBig"":0,""CanSmall"":2,""CanBig"":0,""Seaweed"":0}","{""FishSmall"":2,""FishBig"":0,""CanSmall"":1,""CanBig"":0,""Seaweed"":0}",0.9,1713.9435,0.884615385,2,2,2,2,2,1,0,2,2,2,2,2,2,100,19,0.4
3626472,5,63,Male,1,4-May,0,1,trial_19,,0,,,1578.68,,3572.13,"{""FishSmall"":2,""FishBig"":2,""CanSmall"":0,""CanBig"":0,""Seaweed"":2}","{""FishSmall"":2,""FishBig"":2,""CanSmall"":0,""CanBig"":0,""Seaweed"":2}",50,0,10,10,8.164965809,8.164965809,2,2,0,0,0,-50,"{""FishSmall"":1,""FishBig"":1,""CanSmall"":0,""CanBig"":1,""Seaweed"":0}","{""FishSmall"":1,""FishBig"":1,""CanSmall"":1,""CanBig"":0,""Seaweed"":0}",0.9,1713.9435,0.884615385,2,2,2,2,2,1,0,2,2,2,2,2,2,100,20,0.4
3626472,5,63,Male,1,4-May,0,1,trial_20,,,0,,2512.745,4040.655,,"{""FishSmall"":1,""FishBig"":0,""CanSmall"":5,""CanBig"":0,""Seaweed"":0}","{""FishSmall"":1,""FishBig"":0,""CanSmall"":2,""CanBig"":1,""Seaweed"":2}",0,100,-6.666666667,-5,7.453559925,9.574271078,0,2,1.666666667,2.120711153,2,100,"{""FishSmall"":1,""FishBig"":0,""CanSmall"":2,""CanBig"":0,""Seaweed"":0}","{""FishSmall"":2,""FishBig"":0,""CanSmall"":1,""CanBig"":0,""Seaweed"":0}",0.9,1713.9435,0.884615385,2,2,2,2,2,1,0,2,2,2,2,2,2,100,21,0.4
3626472,,,,,,,,catch_2,1,,,4445.635,,,,"{""FishSmall"":0,""FishBig"":0,""CanSmall"":3,""CanBig"":3,""Seaweed"":0}","{""FishSmall"":0,""FishBig"":0,""CanSmall"":3,""CanBig"":3,""Seaweed"":0}",0,0,,,,,,,,,,,"{""FishSmall"":0,""FishBig"":0,""CanSmall"":1,""CanBig"":2,""Seaweed"":0}","{""FishSmall"":0,""FishBig"":0,""CanSmall"":2,""CanBig"":1,""Seaweed"":0}",,,,,,,,,,,,,,,,,100,22,0.4
3626472,5,63,Male,1,4-May,0,1,trial_21,,0,0,,5011.705,3113296.03,21074.19,"{""FishSmall"":0,""FishBig"":0,""CanSmall"":4,""CanBig"":1,""Seaweed"":1}","{""FishSmall"":1,""FishBig"":0,""CanSmall"":1,""CanBig"":1,""Seaweed"":3}",100,100,-10,-3.333333333,5.773502692,9.428090416,1,3,6.666666667,3.654587724,2,0,"{""FishSmall"":0,""FishBig"":0,""CanSmall"":2,""CanBig"":1,""Seaweed"":0}","{""FishSmall"":0,""FishBig"":1,""CanSmall"":1,""CanBig"":1,""Seaweed"":0}",0.9,1713.9435,0.884615385,2,2,2,2,2,1,0,2,2,2,2,2,2,100,23,0.4
3626472,5,63,Male,1,4-May,0,0,trial_22,,,,,10683.19,,,"{""FishSmall"":3,""FishBig"":1,""CanSmall"":0,""CanBig"":0,""Seaweed"":2}","{""FishSmall"":2,""FishBig"":0,""CanSmall"":4,""CanBig"":0,""Seaweed"":0}",0,0,8.333333333,-3.333333333,6.871842709,9.428090416,2,0,-11.66666667,2.556247706,-2,0,"{""FishSmall"":2,""FishBig"":1,""CanSmall"":0,""CanBig"":0,""Seaweed"":0}","{""FishSmall"":1,""FishBig"":0,""CanSmall"":2,""CanBig"":0,""Seaweed"":0}",0.9,1713.9435,0.884615385,2,2,2,2,2,1,0,2,2,2,2,2,2,100,24,0.4
3626472,5,63,Male,1,4-May,0,1,trial_23,,0,0,,5439.735,9567.575,2434.28,"{""FishSmall"":2,""FishBig"":1,""CanSmall"":1,""CanBig"":0,""Seaweed"":2}","{""FishSmall"":1,""FishBig"":0,""CanSmall"":2,""CanBig"":1,""Seaweed"":2}",50,100,5,-5,9.574271078,9.574271078,2,2,-10,0,0,50,"{""FishSmall"":1,""FishBig"":1,""CanSmall"":0,""CanBig"":1,""Seaweed"":0}","{""FishSmall"":1,""FishBig"":1,""CanSmall"":1,""CanBig"":0,""Seaweed"":0}",0.9,1713.9435,0.884615385,2,2,2,2,2,1,0,2,2,2,2,2,2,100,25,0.4
3626472,5,63,Male,1,4-May,0,1,trial_24,,0,0,,5648.93,1502.41,5416.965,"{""FishSmall"":3,""FishBig"":1,""CanSmall"":0,""CanBig"":0,""Seaweed"":2}","{""FishSmall"":1,""FishBig"":0,""CanSmall"":2,""CanBig"":1,""Seaweed"":2}",50,100,8.333333333,-5,6.871842709,9.574271078,2,2,-13.33333333,2.702428368,0,50,"{""FishSmall"":1,""FishBig"":0,""CanSmall"":2,""CanBig"":0,""Seaweed"":0}","{""FishSmall"":2,""FishBig"":0,""CanSmall"":0,""CanBig"":1,""Seaweed"":0}",0.9,1713.9435,0.884615385,2,2,2,2,2,1,0,2,2,2,2,2,2,100,26,0.4
3626472,5,63,Male,1,4-May,0,1,trial_25,,,1,,2385.545,2544.365,,"{""FishSmall"":0,""FishBig"":0,""CanSmall"":1,""CanBig"":3,""Seaweed"":2}","{""FishSmall"":0,""FishBig"":0,""CanSmall"":2,""CanBig"":3,""Seaweed"":1}",0,100,-11.66666667,-13.33333333,8.975274679,7.453559925,2,1,-1.666666667,-1.521714754,-1,100,"{""FishSmall"":1,""FishBig"":0,""CanSmall"":0,""CanBig"":2,""Seaweed"":0}","{""FishSmall"":0,""FishBig"":0,""CanSmall"":1,""CanBig"":2,""Seaweed"":0}",0.9,1713.9435,0.884615385,2,2,2,2,2,1,0,2,2,2,2,2,2,100,27,0.4
3626472,5,63,Male,1,4-May,0,1,trial_26,,1,0,,5445.6,3495.555,3952.695,"{""FishSmall"":0,""FishBig"":0,""CanSmall"":2,""CanBig"":3,""Seaweed"":1}","{""FishSmall"":2,""FishBig"":1,""CanSmall"":1,""CanBig"":0,""Seaweed"":2}",0,50,-13.33333333,5,7.453559925,9.574271078,1,2,18.33333333,2.120711153,1,50,"{""FishSmall"":0,""FishBig"":0,""CanSmall"":1,""CanBig"":2,""Seaweed"":0}","{""FishSmall"":0,""FishBig"":1,""CanSmall"":1,""CanBig"":1,""Seaweed"":0}",0.9,1713.9435,0.884615385,2,2,2,2,2,1,0,2,2,2,2,2,2,100,28,0.4
3626472,5,63,Male,1,4-May,0,1,trial_27,,1,0,,12992.16,2081.415,2012.865,"{""FishSmall"":1,""FishBig"":0,""CanSmall"":3,""CanBig"":0,""Seaweed"":2}","{""FishSmall"":2,""FishBig"":2,""CanSmall"":0,""CanBig"":0,""Seaweed"":2}",50,100,-3.333333333,10,7.453559925,8.164965809,2,2,13.33333333,0.711405884,0,50,"{""FishSmall"":0,""FishBig"":0,""CanSmall"":3,""CanBig"":0,""Seaweed"":0}","{""FishSmall"":1,""FishBig"":1,""CanSmall"":0,""CanBig"":1,""Seaweed"":0}",0.9,1713.9435,0.884615385,2,2,2,2,2,1,0,2,2,2,2,2,2,100,29,0.4
3626472,5,63,Male,1,4-May,0,0,trial_28,,0,0,,1133.25,3111.395,2316.315,"{""FishSmall"":2,""FishBig"":2,""CanSmall"":0,""CanBig"":0,""Seaweed"":2}","{""FishSmall"":3,""FishBig"":1,""CanSmall"":1,""CanBig"":0,""Seaweed"":1}",100,50,10,6.666666667,8.164965809,9.428090416,2,1,-3.333333333,1.263124607,-1,-50,"{""FishSmall"":2,""FishBig"":1,""CanSmall"":0,""CanBig"":0,""Seaweed"":0}","{""FishSmall"":2,""FishBig"":0,""CanSmall"":1,""CanBig"":0,""Seaweed"":0}",0.9,1713.9435,0.884615385,2,2,2,2,2,1,0,2,2,2,2,2,2,100,30,0.4
3626472,5,63,Male,1,4-May,0,0,trial_29,,0,0,,4338.905,8618.935,3958.775,"{""FishSmall"":2,""FishBig"":1,""CanSmall"":0,""CanBig"":0,""Seaweed"":3}","{""FishSmall"":2,""FishBig"":0,""CanSmall"":1,""CanBig"":0,""Seaweed"":3}",50,50,6.666666667,1.666666667,7.453559925,6.871842709,3,3,-5,-0.581717216,0,0,"{""FishSmall"":2,""FishBig"":1,""CanSmall"":0,""CanBig"":0,""Seaweed"":0}","{""FishSmall"":2,""FishBig"":0,""CanSmall"":1,""CanBig"":0,""Seaweed"":0}",0.9,1713.9435,0.884615385,2,2,2,2,2,1,0,2,2,2,2,2,2,100,31,0.4
3626472,5,63,Male,1,4-May,0,1,trial_30,,1,0,,2609.465,2018.395,1718.43,"{""FishSmall"":0,""FishBig"":0,""CanSmall"":3,""CanBig"":3,""Seaweed"":0}","{""FishSmall"":4,""FishBig"":0,""CanSmall"":1,""CanBig"":0,""Seaweed"":1}",0,50,-15,5,5,7.637626158,0,1,20,2.637626158,1,50,"{""FishSmall"":0,""FishBig"":0,""CanSmall"":1,""CanBig"":2,""Seaweed"":0}","{""FishSmall"":2,""FishBig"":0,""CanSmall"":1,""CanBig"":0,""Seaweed"":0}",0.9,1713.9435,0.884615385,2,2,2,2,2,1,0,2,2,2,2,2,2,100,32,0.4
3626650,12,151,Male,1,13-Oct,3,0,trial_1,,1,,,3971.515,,2736.57,"{""FishSmall"":0,""FishBig"":0,""CanSmall"":3,""CanBig"":3,""Seaweed"":0}","{""FishSmall"":1,""FishBig"":2,""CanSmall"":0,""CanBig"":0,""Seaweed"":3}",100,0,-15,8.333333333,5,8.975274679,0,3,23.33333333,3.975274679,3,-100,"{""FishSmall"":0,""FishBig"":0,""CanSmall"":1,""CanBig"":2,""Seaweed"":0}","{""FishSmall"":1,""FishBig"":2,""CanSmall"":0,""CanBig"":0,""Seaweed"":0}",0.8,618.8515,1,2,2,2,2,2,2,2,2,2,2,2,2,2,100,1,0.4
3626650,12,151,Male,1,13-Oct,3,1,trial_2,,,,,5396.77,,,"{""FishSmall"":0,""FishBig"":0,""CanSmall"":1,""CanBig"":2,""Seaweed"":3}","{""FishSmall"":1,""FishBig"":0,""CanSmall"":2,""CanBig"":0,""Seaweed"":3}",0,50,-8.333333333,-1.666666667,8.975274679,6.871842709,3,3,6.666666667,-2.103431969,0,50,"{""FishSmall"":0,""FishBig"":2,""CanSmall"":0,""CanBig"":1,""Seaweed"":0}","{""FishSmall"":1,""FishBig"":0,""CanSmall"":2,""CanBig"":0,""Seaweed"":0}",0.8,618.8515,1,2,2,2,2,2,2,2,2,2,2,2,2,2,100,2,0.4
3626650,12,151,Male,1,13-Oct,3,1,trial_3,,,,,5710.885,,,"{""FishSmall"":1,""FishBig"":0,""CanSmall"":2,""CanBig"":1,""Seaweed"":2}","{""FishSmall"":1,""FishBig"":4,""CanSmall"":0,""CanBig"":0,""Seaweed"":1}",50,0,-5,15,9.574271078,7.637626158,2,1,20,-1.936644919,-1,-50,"{""FishSmall"":0,""FishBig"":0,""CanSmall"":2,""CanBig"":1,""Seaweed"":0}","{""FishSmall"":1,""FishBig"":2,""CanSmall"":0,""CanBig"":0,""Seaweed"":0}",0.8,618.8515,1,2,2,2,2,2,2,2,2,2,2,2,2,2,100,3,0.4
3626650,12,151,Male,1,13-Oct,3,0,trial_4,,,,,7920.78,,,"{""FishSmall"":2,""FishBig"":0,""CanSmall"":3,""CanBig"":0,""Seaweed"":1}","{""FishSmall"":0,""FishBig"":0,""CanSmall"":3,""CanBig"":2,""Seaweed"":1}",50,0,-1.666666667,-11.66666667,8.975274679,6.871842709,1,1,-10,-2.103431969,0,-50,"{""FishSmall"":0,""FishBig"":0,""CanSmall"":2,""CanBig"":1,""Seaweed"":0}","{""FishSmall"":0,""FishBig"":0,""CanSmall"":2,""CanBig"":1,""Seaweed"":0}",0.8,618.8515,1,2,2,2,2,2,2,2,2,2,2,2,2,2,100,4,0.4
3626650,12,151,Male,1,13-Oct,3,1,trial_5,,1,,,9079.925,,7768.405,"{""FishSmall"":1,""FishBig"":0,""CanSmall"":2,""CanBig"":1,""Seaweed"":2}","{""FishSmall"":0,""FishBig"":0,""CanSmall"":4,""CanBig"":0,""Seaweed"":2}",50,50,-5,-6.666666667,9.574271078,4.714045208,2,2,-1.666666667,-4.86022587,0,0,"{""FishSmall"":1,""FishBig"":0,""CanSmall"":1,""CanBig"":1,""Seaweed"":0}","{""FishSmall"":0,""FishBig"":0,""CanSmall"":2,""CanBig"":1,""Seaweed"":0}",0.8,618.8515,1,2,2,2,2,2,2,2,2,2,2,2,2,2,100,5,0.4
3626650,12,151,Male,1,13-Oct,3,0,trial_6,,,0,,3535.155,9551.725,,"{""FishSmall"":1,""FishBig"":0,""CanSmall"":3,""CanBig"":0,""Seaweed"":2}","{""FishSmall"":3,""FishBig"":1,""CanSmall"":1,""CanBig"":0,""Seaweed"":1}",0,100,-3.333333333,6.666666667,7.453559925,9.428090416,2,1,10,1.974530491,-1,100,"{""FishSmall"":1,""FishBig"":0,""CanSmall"":1,""CanBig"":1,""Seaweed"":0}","{""FishSmall"":2,""FishBig"":1,""CanSmall"":0,""CanBig"":0,""Seaweed"":0}",0.8,618.8515,1,2,2,2,2,2,2,2,2,2,2,2,2,2,100,6,0.4
3626650,12,151,Male,1,13-Oct,3,1,trial_7,,,0,,6706.31,5383.145,,"{""FishSmall"":1,""FishBig"":4,""CanSmall"":0,""CanBig"":0,""Seaweed"":1}","{""FishSmall"":2,""FishBig"":2,""CanSmall"":0,""CanBig"":0,""Seaweed"":2}",50,50,15,10,7.637626158,8.164965809,1,2,-5,0.527339651,1,0,"{""FishSmall"":1,""FishBig"":2,""CanSmall"":0,""CanBig"":0,""Seaweed"":0}","{""FishSmall"":2,""FishBig"":1,""CanSmall"":0,""CanBig"":0,""Seaweed"":0}",0.8,618.8515,1,2,2,2,2,2,2,2,2,2,2,2,2,2,100,7,0.4
3626650,12,151,Male,1,13-Oct,3,1,trial_8,,,,,3317.16,,,"{""FishSmall"":3,""FishBig"":3,""CanSmall"":0,""CanBig"":0,""Seaweed"":0}","{""FishSmall"":1,""FishBig"":0,""CanSmall"":3,""CanBig"":1,""Seaweed"":1}",0,50,15,-6.666666667,5,9.428090416,0,1,-21.66666667,4.428090416,1,50,"{""FishSmall"":1,""FishBig"":2,""CanSmall"":0,""CanBig"":0,""Seaweed"":0}","{""FishSmall"":1,""FishBig"":1,""CanSmall"":1,""CanBig"":0,""Seaweed"":0}",0.8,618.8515,1,2,2,2,2,2,2,2,2,2,2,2,2,2,100,8,0.4
3626650,12,151,Male,1,13-Oct,3,1,trial_9,,,,,1848.82,,,"{""FishSmall"":2,""FishBig"":0,""CanSmall"":2,""CanBig"":0,""Seaweed"":2}","{""FishSmall"":2,""FishBig"":1,""CanSmall"":1,""CanBig"":0,""Seaweed"":2}",0,50,0,5,8.164965809,9.574271078,2,2,5,1.409305268,0,50,"{""FishSmall"":1,""FishBig"":1,""CanSmall"":0,""CanBig"":1,""Seaweed"":0}","{""FishSmall"":1,""FishBig"":1,""CanSmall"":1,""CanBig"":0,""Seaweed"":0}",0.8,618.8515,1,2,2,2,2,2,2,2,2,2,2,2,2,2,100,9,0.4
3626650,12,151,Male,1,13-Oct,3,1,trial_10,,,,,5416.06,,,"{""FishSmall"":3,""FishBig"":1,""CanSmall"":1,""CanBig"":0,""Seaweed"":1}","{""FishSmall"":0,""FishBig"":0,""CanSmall"":3,""CanBig"":1,""Seaweed"":2}",0,0,6.666666667,-8.333333333,9.428090416,6.871842709,1,2,-15,-2.556247706,1,0,"{""FishSmall"":3,""FishBig"":0,""CanSmall"":0,""CanBig"":0,""Seaweed"":0}","{""FishSmall"":1,""FishBig"":0,""CanSmall"":1,""CanBig"":1,""Seaweed"":0}",0.8,618.8515,1,2,2,2,2,2,2,2,2,2,2,2,2,2,100,10,0.4
3626650,,,,,,,,catch_1,0,,,2370,,,,"{""FishSmall"":4,""FishBig"":2,""CanSmall"":0,""CanBig"":0,""Seaweed"":0}","{""FishSmall"":4,""FishBig"":2,""CanSmall"":0,""CanBig"":0,""Seaweed"":0}",0,0,,,,,,,,,,,"{""FishSmall"":2,""FishBig"":1,""CanSmall"":0,""CanBig"":0,""Seaweed"":0}","{""FishSmall"":2,""FishBig"":1,""CanSmall"":0,""CanBig"":0,""Seaweed"":0}",,,,,,,,,,,,,,,,,100,11,0.4
3626650,12,151,Male,1,13-Oct,3,1,trial_11,,,1,,5929.42,1601.605,,"{""FishSmall"":2,""FishBig"":2,""CanSmall"":0,""CanBig"":0,""Seaweed"":2}","{""FishSmall"":0,""FishBig"":0,""CanSmall"":1,""CanBig"":2,""Seaweed"":3}",0,100,10,-8.333333333,8.164965809,8.975274679,2,3,-18.33333333,0.810308869,1,100,"{""FishSmall"":2,""FishBig"":0,""CanSmall"":1,""CanBig"":0,""Seaweed"":0}","{""FishSmall"":0,""FishBig"":0,""CanSmall"":1,""CanBig"":2,""Seaweed"":0}",0.8,618.8515,1,2,2,2,2,2,2,2,2,2,2,2,2,2,100,12,0.4
3626650,12,151,Male,1,13-Oct,3,1,trial_12,,0,1,,796.63,561.865,1516.685,"{""FishSmall"":1,""FishBig"":0,""CanSmall"":1,""CanBig"":1,""Seaweed"":3}","{""FishSmall"":2,""FishBig"":0,""CanSmall"":2,""CanBig"":0,""Seaweed"":2}",100,100,-3.333333333,0,9.428090416,8.164965809,3,2,3.333333333,-1.263124607,-1,0,"{""FishSmall"":0,""FishBig"":1,""CanSmall"":1,""CanBig"":1,""Seaweed"":0}","{""FishSmall"":1,""FishBig"":1,""CanSmall"":1,""CanBig"":0,""Seaweed"":0}",0.8,618.8515,1,2,2,2,2,2,2,2,2,2,2,2,2,2,100,13,0.4
3626650,12,151,Male,1,13-Oct,3,1,trial_13,,0,0,,469.805,2343.28,2359.1,"{""FishSmall"":0,""FishBig"":0,""CanSmall"":1,""CanBig"":4,""Seaweed"":1}","{""FishSmall"":0,""FishBig"":0,""CanSmall"":3,""CanBig"":2,""Seaweed"":1}",0,100,-15,-11.66666667,7.637626158,6.871842709,1,1,3.333333333,-0.765783449,0,100,"{""FishSmall"":0,""FishBig"":0,""CanSmall"":1,""CanBig"":2,""Seaweed"":0}","{""FishSmall"":0,""FishBig"":0,""CanSmall"":3,""CanBig"":0,""Seaweed"":0}",0.8,618.8515,1,2,2,2,2,2,2,2,2,2,2,2,2,2,100,14,0.4
3626650,12,151,Male,1,13-Oct,3,1,trial_14,,,1,,1982.035,656.915,,"{""FishSmall"":5,""FishBig"":0,""CanSmall"":1,""CanBig"":0,""Seaweed"":0}","{""FishSmall"":3,""FishBig"":3,""CanSmall"":0,""CanBig"":0,""Seaweed"":0}",0,100,6.666666667,15,7.453559925,5,0,0,8.333333333,-2.453559925,0,100,"{""FishSmall"":2,""FishBig"":0,""CanSmall"":1,""CanBig"":0,""Seaweed"":0}","{""FishSmall"":0,""FishBig"":3,""CanSmall"":0,""CanBig"":0,""Seaweed"":0}",0.8,618.8515,1,2,2,2,2,2,2,2,2,2,2,2,2,2,100,15,0.4
3626650,12,151,Male,1,13-Oct,3,1,trial_15,,1,1,,711.945,660.1,1100.66,"{""FishSmall"":0,""FishBig"":0,""CanSmall"":1,""CanBig"":4,""Seaweed"":1}","{""FishSmall"":2,""FishBig"":1,""CanSmall"":1,""CanBig"":0,""Seaweed"":2}",100,100,-15,5,7.637626158,9.574271078,1,2,20,1.936644919,1,0,"{""FishSmall"":0,""FishBig"":0,""CanSmall"":1,""CanBig"":2,""Seaweed"":0}","{""FishSmall"":2,""FishBig"":1,""CanSmall"":0,""CanBig"":0,""Seaweed"":0}",0.8,618.8515,1,2,2,2,2,2,2,2,2,2,2,2,2,2,100,16,0.4
3626650,12,151,Male,1,13-Oct,3,1,trial_16,,,1,,2116.55,1689.42,,"{""FishSmall"":3,""FishBig"":1,""CanSmall"":0,""CanBig"":0,""Seaweed"":2}","{""FishSmall"":4,""FishBig"":0,""CanSmall"":1,""CanBig"":0,""Seaweed"":1}",50,100,8.333333333,5,6.871842709,7.637626158,2,1,-3.333333333,0.765783449,-1,50,"{""FishSmall"":2,""FishBig"":0,""CanSmall"":0,""CanBig"":1,""Seaweed"":0}","{""FishSmall"":2,""FishBig"":1,""CanSmall"":0,""CanBig"":0,""Seaweed"":0}",0.8,618.8515,1,2,2,2,2,2,2,2,2,2,2,2,2,2,100,17,0.4
3626650,12,151,Male,1,13-Oct,3,1,trial_17,,,1,,459.565,626.475,,"{""FishSmall"":1,""FishBig"":3,""CanSmall"":0,""CanBig"":0,""Seaweed"":2}","{""FishSmall"":0,""FishBig"":0,""CanSmall"":3,""CanBig"":3,""Seaweed"":0}",50,50,11.66666667,-15,8.975274679,5,2,0,-26.66666667,-3.975274679,-2,0,"{""FishSmall"":1,""FishBig"":2,""CanSmall"":0,""CanBig"":0,""Seaweed"":0}","{""FishSmall"":0,""FishBig"":0,""CanSmall"":1,""CanBig"":2,""Seaweed"":0}",0.8,618.8515,1,2,2,2,2,2,2,2,2,2,2,2,2,2,100,18,0.4
3626650,12,151,Male,1,13-Oct,3,0,trial_18,,0,,,3730.17,,1514.48,"{""FishSmall"":3,""FishBig"":0,""CanSmall"":1,""CanBig"":0,""Seaweed"":2}","{""FishSmall"":0,""FishBig"":0,""CanSmall"":2,""CanBig"":2,""Seaweed"":2}",100,0,3.333333333,-10,7.453559925,8.164965809,2,2,-13.33333333,0.711405884,0,-100,"{""FishSmall"":1,""FishBig"":0,""CanSmall"":1,""CanBig"":1,""Seaweed"":0}","{""FishSmall"":0,""FishBig"":1,""CanSmall"":1,""CanBig"":1,""Seaweed"":0}",0.8,618.8515,1,2,2,2,2,2,2,2,2,2,2,2,2,2,100,19,0.4
3626650,12,151,Male,1,13-Oct,3,0,trial_19,,1,1,,984.835,2509.62,1048.495,"{""FishSmall"":2,""FishBig"":0,""CanSmall"":3,""CanBig"":0,""Seaweed"":1}","{""FishSmall"":2,""FishBig"":2,""CanSmall"":0,""CanBig"":0,""Seaweed"":2}",50,100,-1.666666667,10,8.975274679,8.164965809,1,2,11.66666667,-0.810308869,1,50,"{""FishSmall"":0,""FishBig"":0,""CanSmall"":3,""CanBig"":0,""Seaweed"":0}","{""FishSmall"":1,""FishBig"":1,""CanSmall"":0,""CanBig"":1,""Seaweed"":0}",0.8,618.8515,1,2,2,2,2,2,2,2,2,2,2,2,2,2,100,20,0.4
3626650,12,151,Male,1,13-Oct,3,1,trial_20,,,1,,1332.315,130.64,,"{""FishSmall"":3,""FishBig"":1,""CanSmall"":1,""CanBig"":0,""Seaweed"":1}","{""FishSmall"":3,""FishBig"":1,""CanSmall"":0,""CanBig"":0,""Seaweed"":2}",50,100,6.666666667,8.333333333,9.428090416,6.871842709,1,2,1.666666667,-2.556247706,1,50,"{""FishSmall"":1,""FishBig"":1,""CanSmall"":1,""CanBig"":0,""Seaweed"":0}","{""FishSmall"":2,""FishBig"":0,""CanSmall"":0,""CanBig"":1,""Seaweed"":0}",0.8,618.8515,1,2,2,2,2,2,2,2,2,2,2,2,2,2,100,21,0.4
3626650,,,,,,,,catch_2,1,,,2587.51,,,,"{""FishSmall"":0,""FishBig"":0,""CanSmall"":3,""CanBig"":3,""Seaweed"":0}","{""FishSmall"":0,""FishBig"":0,""CanSmall"":3,""CanBig"":3,""Seaweed"":0}",0,0,,,,,,,,,,,"{""FishSmall"":0,""FishBig"":0,""CanSmall"":1,""CanBig"":2,""Seaweed"":0}","{""FishSmall"":0,""FishBig"":0,""CanSmall"":3,""CanBig"":0,""Seaweed"":0}",,,,,,,,,,,,,,,,,100,22,0.4
3626650,12,151,Male,1,13-Oct,3,1,trial_21,,0,,,1181.1,,1088.925,"{""FishSmall"":2,""FishBig"":0,""CanSmall"":3,""CanBig"":0,""Seaweed"":1}","{""FishSmall"":0,""FishBig"":0,""CanSmall"":3,""CanBig"":3,""Seaweed"":0}",50,0,-1.666666667,-15,8.975274679,5,1,0,-13.33333333,-3.975274679,-1,-50,"{""FishSmall"":1,""FishBig"":0,""CanSmall"":2,""CanBig"":0,""Seaweed"":0}","{""FishSmall"":0,""FishBig"":0,""CanSmall"":1,""CanBig"":2,""Seaweed"":0}",0.8,618.8515,1,2,2,2,2,2,2,2,2,2,2,2,2,2,100,23,0.4
3626650,12,151,Male,1,13-Oct,3,1,trial_22,,,1,,4396.555,709.03,,"{""FishSmall"":4,""FishBig"":1,""CanSmall"":1,""CanBig"":0,""Seaweed"":0}","{""FishSmall"":1,""FishBig"":1,""CanSmall"":1,""CanBig"":0,""Seaweed"":3}",50,50,8.333333333,3.333333333,8.975274679,9.428090416,0,3,-5,0.452815737,3,0,"{""FishSmall"":2,""FishBig"":0,""CanSmall"":1,""CanBig"":0,""Seaweed"":0}","{""FishSmall"":1,""FishBig"":1,""CanSmall"":1,""CanBig"":0,""Seaweed"":0}",0.8,618.8515,1,2,2,2,2,2,2,2,2,2,2,2,2,2,100,24,0.4
3626650,12,151,Male,1,13-Oct,3,0,trial_23,,1,0,,13977.78,972.2,6148.8,"{""FishSmall"":0,""FishBig"":0,""CanSmall"":2,""CanBig"":3,""Seaweed"":1}","{""FishSmall"":0,""FishBig"":0,""CanSmall"":2,""CanBig"":3,""Seaweed"":1}",100,100,-13.33333333,-13.33333333,7.453559925,7.453559925,1,1,0,0,0,0,"{""FishSmall"":0,""FishBig"":0,""CanSmall"":1,""CanBig"":2,""Seaweed"":0}","{""FishSmall"":0,""FishBig"":0,""CanSmall"":1,""CanBig"":2,""Seaweed"":0}",0.8,618.8515,1,2,2,2,2,2,2,2,2,2,2,2,2,2,100,25,0.4
3626650,12,151,Male,1,13-Oct,3,0,trial_24,,0,,,1500.64,,1215.275,"{""FishSmall"":3,""FishBig"":1,""CanSmall"":1,""CanBig"":0,""Seaweed"":1}","{""FishSmall"":1,""FishBig"":0,""CanSmall"":4,""CanBig"":0,""Seaweed"":1}",50,0,6.666666667,-5,9.428090416,7.637626158,1,1,-11.66666667,-1.790464258,0,-50,"{""FishSmall"":2,""FishBig"":1,""CanSmall"":0,""CanBig"":0,""Seaweed"":0}","{""FishSmall"":0,""FishBig"":1,""CanSmall"":2,""CanBig"":0,""Seaweed"":0}",0.8,618.8515,1,2,2,2,2,2,2,2,2,2,2,2,2,2,100,26,0.4
3626650,12,151,Male,1,13-Oct,3,1,trial_25,,0,1,,687.655,696.625,1863.305,"{""FishSmall"":4,""FishBig"":0,""CanSmall"":1,""CanBig"":0,""Seaweed"":1}","{""FishSmall"":2,""FishBig"":2,""CanSmall"":0,""CanBig"":0,""Seaweed"":2}",50,50,5,10,7.637626158,8.164965809,1,2,5,0.527339651,1,0,"{""FishSmall"":2,""FishBig"":1,""CanSmall"":0,""CanBig"":0,""Seaweed"":0}","{""FishSmall"":0,""FishBig"":2,""CanSmall"":0,""CanBig"":1,""Seaweed"":0}",0.8,618.8515,1,2,2,2,2,2,2,2,2,2,2,2,2,2,100,27,0.4
3626650,12,151,Male,1,13-Oct,3,1,trial_26,,,1,,995.42,1970.29,,"{""FishSmall"":2,""FishBig"":1,""CanSmall"":1,""CanBig"":0,""Seaweed"":2}","{""FishSmall"":3,""FishBig"":1,""CanSmall"":1,""CanBig"":0,""Seaweed"":1}",0,0,5,6.666666667,9.574271078,9.428090416,2,1,1.666666667,-0.146180662,-1,0,"{""FishSmall"":2,""FishBig"":1,""CanSmall"":0,""CanBig"":0,""Seaweed"":0}","{""FishSmall"":1,""FishBig"":2,""CanSmall"":0,""CanBig"":0,""Seaweed"":0}",0.8,618.8515,1,2,2,2,2,2,2,2,2,2,2,2,2,2,100,28,0.4
3626650,12,151,Male,1,13-Oct,3,1,trial_27,,0,,,4954.535,,1133.095,"{""FishSmall"":1,""FishBig"":0,""CanSmall"":2,""CanBig"":1,""Seaweed"":2}","{""FishSmall"":1,""FishBig"":1,""CanSmall"":1,""CanBig"":0,""Seaweed"":3}",100,50,-5,3.333333333,9.574271078,9.428090416,2,3,8.333333333,-0.146180662,1,-50,"{""FishSmall"":0,""FishBig"":0,""CanSmall"":2,""CanBig"":1,""Seaweed"":0}","{""FishSmall"":1,""FishBig"":1,""CanSmall"":1,""CanBig"":0,""Seaweed"":0}",0.8,618.8515,1,2,2,2,2,2,2,2,2,2,2,2,2,2,100,29,0.4
3626650,12,151,Male,1,13-Oct,3,0,trial_28,,,,,758.09,,,"{""FishSmall"":0,""FishBig"":0,""CanSmall"":4,""CanBig"":2,""Seaweed"":0}","{""FishSmall"":4,""FishBig"":1,""CanSmall"":1,""CanBig"":0,""Seaweed"":0}",0,0,-13.33333333,8.333333333,4.714045208,8.975274679,0,0,21.66666667,4.261229471,0,0,"{""FishSmall"":0,""FishBig"":0,""CanSmall"":1,""CanBig"":2,""Seaweed"":0}","{""FishSmall"":3,""FishBig"":0,""CanSmall"":0,""CanBig"":0,""Seaweed"":0}",0.8,618.8515,1,2,2,2,2,2,2,2,2,2,2,2,2,2,100,30,0.4
3626650,12,151,Male,1,13-Oct,3,0,trial_29,,,1,,1844.385,1191.69,,"{""FishSmall"":0,""FishBig"":0,""CanSmall"":1,""CanBig"":3,""Seaweed"":2}","{""FishSmall"":1,""FishBig"":0,""CanSmall"":2,""CanBig"":1,""Seaweed"":2}",0,100,-11.66666667,-5,8.975274679,9.574271078,2,2,6.666666667,0.598996399,0,100,"{""FishSmall"":1,""FishBig"":0,""CanSmall"":1,""CanBig"":1,""Seaweed"":0}","{""FishSmall"":0,""FishBig"":0,""CanSmall"":1,""CanBig"":2,""Seaweed"":0}",0.8,618.8515,1,2,2,2,2,2,2,2,2,2,2,2,2,2,100,31,0.4
3626650,12,151,Male,1,13-Oct,3,1,trial_30,,0,1,,1555.325,840.28,1003.205,"{""FishSmall"":1,""FishBig"":0,""CanSmall"":3,""CanBig"":1,""Seaweed"":1}","{""FishSmall"":0,""FishBig"":0,""CanSmall"":1,""CanBig"":3,""Seaweed"":2}",50,50,-6.666666667,-11.66666667,9.428090416,8.975274679,1,2,-5,-0.452815737,1,0,"{""FishSmall"":1,""FishBig"":0,""CanSmall"":1,""CanBig"":1,""Seaweed"":0}","{""FishSmall"":0,""FishBig"":1,""CanSmall"":0,""CanBig"":2,""Seaweed"":0}",0.8,618.8515,1,2,2,2,2,2,2,2,2,2,2,2,2,2,100,32,0.4
3627213,5,65,Male,1,4-May,0,0,trial_1,,,,,5004.34,,,"{""FishSmall"":0,""FishBig"":1,""CanSmall"":0,""CanBig"":1,""Seaweed"":4}","{""FishSmall"":0,""FishBig"":0,""CanSmall"":2,""CanBig"":3,""Seaweed"":1}",0,50,0,-13.33333333,11.54700538,7.453559925,4,1,-13.33333333,-4.093445459,-3,50,"{""FishSmall"":0,""FishBig"":0,""CanSmall"":0,""CanBig"":3,""Seaweed"":0}","{""FishSmall"":0,""FishBig"":0,""CanSmall"":1,""CanBig"":2,""Seaweed"":0}",1,2425.96,0.961538462,2,2,2,2,2,2,2,1,2,2,2,2,2,100,1,0.9
3627213,5,65,Male,1,4-May,0,0,trial_2,,0,0,,3470.93,8218.3,2515.795,"{""FishSmall"":2,""FishBig"":2,""CanSmall"":0,""CanBig"":0,""Seaweed"":2}","{""FishSmall"":1,""FishBig"":3,""CanSmall"":0,""CanBig"":0,""Seaweed"":2}",100,100,10,11.66666667,8.164965809,8.975274679,2,2,1.666666667,0.810308869,0,0,"{""FishSmall"":2,""FishBig"":1,""CanSmall"":0,""CanBig"":0,""Seaweed"":0}","{""FishSmall"":1,""FishBig"":2,""CanSmall"":0,""CanBig"":0,""Seaweed"":0}",1,2425.96,0.961538462,2,2,2,2,2,2,2,1,2,2,2,2,2,100,2,0.9
3627213,5,65,Male,1,4-May,0,0,trial_3,,0,0,,5753.73,11225.455,1779.085,"{""FishSmall"":1,""FishBig"":1,""CanSmall"":1,""CanBig"":0,""Seaweed"":3}","{""FishSmall"":1,""FishBig"":2,""CanSmall"":0,""CanBig"":0,""Seaweed"":3}",50,50,3.333333333,8.333333333,9.428090416,8.975274679,3,3,5,-0.452815737,0,0,"{""FishSmall"":2,""FishBig"":1,""CanSmall"":0,""CanBig"":0,""Seaweed"":0}","{""FishSmall"":0,""FishBig"":2,""CanSmall"":1,""CanBig"":0,""Seaweed"":0}",1,2425.96,0.961538462,2,2,2,2,2,2,2,1,2,2,2,2,2,100,3,0.9
3627213,5,65,Male,1,4-May,0,0,trial_4,,1,0,,5072.26,18432.055,13236.985,"{""FishSmall"":1,""FishBig"":0,""CanSmall"":3,""CanBig"":0,""Seaweed"":2}","{""FishSmall"":1,""FishBig"":0,""CanSmall"":3,""CanBig"":1,""Seaweed"":1}",50,50,-3.333333333,-6.666666667,7.453559925,9.428090416,2,1,-3.333333333,1.974530491,-1,0,"{""FishSmall"":2,""FishBig"":0,""CanSmall"":1,""CanBig"":0,""Seaweed"":0}","{""FishSmall"":1,""FishBig"":0,""CanSmall"":1,""CanBig"":1,""Seaweed"":0}",1,2425.96,0.961538462,2,2,2,2,2,2,2,1,2,2,2,2,2,100,4,0.9
3627213,5,65,Male,1,4-May,0,1,trial_5,,1,0,,5181.33,7572.995,9256.415,"{""FishSmall"":4,""FishBig"":0,""CanSmall"":2,""CanBig"":0,""Seaweed"":0}","{""FishSmall"":2,""FishBig"":1,""CanSmall"":1,""CanBig"":0,""Seaweed"":2}",50,50,3.333333333,5,9.428090416,9.574271078,0,2,1.666666667,0.146180662,2,0,"{""FishSmall"":2,""FishBig"":0,""CanSmall"":1,""CanBig"":0,""Seaweed"":0}","{""FishSmall"":1,""FishBig"":1,""CanSmall"":1,""CanBig"":0,""Seaweed"":0}",1,2425.96,0.961538462,2,2,2,2,2,2,2,1,2,2,2,2,2,100,5,0.9
3627213,5,65,Male,1,4-May,0,1,trial_6,,,0,,6360.285,11695.755,,"{""FishSmall"":1,""FishBig"":0,""CanSmall"":3,""CanBig"":1,""Seaweed"":1}","{""FishSmall"":3,""FishBig"":1,""CanSmall"":1,""CanBig"":0,""Seaweed"":1}",50,50,-6.666666667,6.666666667,9.428090416,9.428090416,1,1,13.33333333,1.78E-15,0,0,"{""FishSmall"":0,""FishBig"":1,""CanSmall"":2,""CanBig"":0,""Seaweed"":0}","{""FishSmall"":1,""FishBig"":1,""CanSmall"":1,""CanBig"":0,""Seaweed"":0}",1,2425.96,0.961538462,2,2,2,2,2,2,2,1,2,2,2,2,2,100,6,0.9
3627213,5,65,Male,1,4-May,0,1,trial_7,,0,,,4631.635,,2455.025,"{""FishSmall"":0,""FishBig"":0,""CanSmall"":3,""CanBig"":1,""Seaweed"":2}","{""FishSmall"":2,""FishBig"":1,""CanSmall"":0,""CanBig"":0,""Seaweed"":3}",100,0,-8.333333333,6.666666667,6.871842709,7.453559925,2,3,15,0.581717216,1,-100,"{""FishSmall"":0,""FishBig"":0,""CanSmall"":2,""CanBig"":1,""Seaweed"":0}","{""FishSmall"":1,""FishBig"":1,""CanSmall"":1,""CanBig"":0,""Seaweed"":0}",1,2425.96,0.961538462,2,2,2,2,2,2,2,1,2,2,2,2,2,100,7,0.9
3627213,5,65,Male,1,4-May,0,0,trial_8,,,1,,5537.535,2175.44,,"{""FishSmall"":0,""FishBig"":0,""CanSmall"":2,""CanBig"":3,""Seaweed"":1}","{""FishSmall"":1,""FishBig"":3,""CanSmall"":0,""CanBig"":0,""Seaweed"":2}",0,100,-13.33333333,11.66666667,7.453559925,8.975274679,1,2,25,1.521714754,1,100,"{""FishSmall"":0,""FishBig"":0,""CanSmall"":1,""CanBig"":2,""Seaweed"":0}","{""FishSmall"":0,""FishBig"":2,""CanSmall"":0,""CanBig"":1,""Seaweed"":0}",1,2425.96,0.961538462,2,2,2,2,2,2,2,1,2,2,2,2,2,100,8,0.9
3627213,5,65,Male,1,4-May,0,1,trial_9,,0,0,,4127.27,7896.405,2486.175,"{""FishSmall"":0,""FishBig"":0,""CanSmall"":2,""CanBig"":2,""Seaweed"":2}","{""FishSmall"":3,""FishBig"":1,""CanSmall"":0,""CanBig"":0,""Seaweed"":2}",0,100,-10,8.333333333,8.164965809,6.871842709,2,2,18.33333333,-1.2931231,0,100,"{""FishSmall"":0,""FishBig"":0,""CanSmall"":1,""CanBig"":2,""Seaweed"":0}","{""FishSmall"":1,""FishBig"":1,""CanSmall"":1,""CanBig"":0,""Seaweed"":0}",1,2425.96,0.961538462,2,2,2,2,2,2,2,1,2,2,2,2,2,100,9,0.9
3627213,5,65,Male,1,4-May,0,0,trial_10,,0,0,,4405.3,2039.99,8654.875,"{""FishSmall"":3,""FishBig"":0,""CanSmall"":2,""CanBig"":0,""Seaweed"":1}","{""FishSmall"":3,""FishBig"":1,""CanSmall"":0,""CanBig"":0,""Seaweed"":2}",100,0,1.666666667,8.333333333,8.975274679,6.871842709,1,2,6.666666667,-2.103431969,1,-100,"{""FishSmall"":2,""FishBig"":0,""CanSmall"":1,""CanBig"":0,""Seaweed"":0}","{""FishSmall"":3,""FishBig"":0,""CanSmall"":0,""CanBig"":0,""Seaweed"":0}",1,2425.96,0.961538462,2,2,2,2,2,2,2,1,2,2,2,2,2,100,10,0.9
3627213,,,,,,,,catch_1,0,,,6152.205,,,,"{""FishSmall"":4,""FishBig"":2,""CanSmall"":0,""CanBig"":0,""Seaweed"":0}","{""FishSmall"":4,""FishBig"":2,""CanSmall"":0,""CanBig"":0,""Seaweed"":0}",0,0,,,,,,,,,,,"{""FishSmall"":2,""FishBig"":1,""CanSmall"":0,""CanBig"":0,""Seaweed"":0}","{""FishSmall"":3,""FishBig"":0,""CanSmall"":0,""CanBig"":0,""Seaweed"":0}",,,,,,,,,,,,,,,,,100,11,0.9
3627213,5,65,Male,1,4-May,0,1,trial_11,,,1,,3953.845,6446.33,,"{""FishSmall"":1,""FishBig"":0,""CanSmall"":1,""CanBig"":1,""Seaweed"":3}","{""FishSmall"":1,""FishBig"":0,""CanSmall"":4,""CanBig"":0,""Seaweed"":1}",50,100,-3.333333333,-5,9.428090416,7.637626158,3,1,-1.666666667,-1.790464258,-2,50,"{""FishSmall"":1,""FishBig"":0,""CanSmall"":2,""CanBig"":0,""Seaweed"":0}","{""FishSmall"":0,""FishBig"":0,""CanSmall"":3,""CanBig"":0,""Seaweed"":0}",1,2425.96,0.961538462,2,2,2,2,2,2,2,1,2,2,2,2,2,100,12,0.9
3627213,5,65,Male,1,4-May,0,0,trial_12,,0,,,5473.105,,3277.035,"{""FishSmall"":1,""FishBig"":0,""CanSmall"":2,""CanBig"":0,""Seaweed"":3}","{""FishSmall"":0,""FishBig"":0,""CanSmall"":4,""CanBig"":2,""Seaweed"":0}",100,0,-1.666666667,-13.33333333,6.871842709,4.714045208,3,0,-11.66666667,-2.157797501,-3,-100,"{""FishSmall"":0,""FishBig"":2,""CanSmall"":1,""CanBig"":0,""Seaweed"":0}","{""FishSmall"":0,""FishBig"":0,""CanSmall"":3,""CanBig"":0,""Seaweed"":0}",1,2425.96,0.961538462,2,2,2,2,2,2,2,1,2,2,2,2,2,100,13,0.9
3627213,5,65,Male,1,4-May,0,1,trial_13,,0,0,,4117.735,6688.96,6586.225,"{""FishSmall"":2,""FishBig"":0,""CanSmall"":1,""CanBig"":0,""Seaweed"":3}","{""FishSmall"":2,""FishBig"":0,""CanSmall"":2,""CanBig"":0,""Seaweed"":2}",50,100,1.666666667,0,6.871842709,8.164965809,3,2,-1.666666667,1.2931231,-1,50,"{""FishSmall"":2,""FishBig"":0,""CanSmall"":1,""CanBig"":0,""Seaweed"":0}","{""FishSmall"":1,""FishBig"":0,""CanSmall"":2,""CanBig"":0,""Seaweed"":0}",1,2425.96,0.961538462,2,2,2,2,2,2,2,1,2,2,2,2,2,100,14,0.9
3627213,5,65,Male,1,4-May,0,0,trial_14,,0,0,,4399.955,3375.615,4074.705,"{""FishSmall"":1,""FishBig"":0,""CanSmall"":2,""CanBig"":1,""Seaweed"":2}","{""FishSmall"":3,""FishBig"":0,""CanSmall"":0,""CanBig"":0,""Seaweed"":3}",50,50,-5,5,9.574271078,5,2,3,10,-4.574271078,1,0,"{""FishSmall"":1,""FishBig"":0,""CanSmall"":1,""CanBig"":1,""Seaweed"":0}","{""FishSmall"":1,""FishBig"":1,""CanSmall"":0,""CanBig"":1,""Seaweed"":0}",1,2425.96,0.961538462,2,2,2,2,2,2,2,1,2,2,2,2,2,100,15,0.9
3627213,5,65,Male,1,4-May,0,1,trial_15,,0,,,3528.065,,1453,"{""FishSmall"":0,""FishBig"":4,""CanSmall"":0,""CanBig"":0,""Seaweed"":2}","{""FishSmall"":2,""FishBig"":1,""CanSmall"":1,""CanBig"":0,""Seaweed"":2}",100,0,13.33333333,5,9.428090416,9.574271078,2,2,-8.333333333,0.146180662,0,-100,"{""FishSmall"":0,""FishBig"":2,""CanSmall"":0,""CanBig"":1,""Seaweed"":0}","{""FishSmall"":2,""FishBig"":0,""CanSmall"":1,""CanBig"":0,""Seaweed"":0}",1,2425.96,0.961538462,2,2,2,2,2,2,2,1,2,2,2,2,2,100,16,0.9
3627213,5,65,Male,1,4-May,0,0,trial_16,,0,1,,4022.3,7556.385,3813.165,"{""FishSmall"":4,""FishBig"":2,""CanSmall"":0,""CanBig"":0,""Seaweed"":0}","{""FishSmall"":0,""FishBig"":0,""CanSmall"":2,""CanBig"":3,""Seaweed"":1}",100,50,13.33333333,-13.33333333,4.714045208,7.453559925,0,1,-26.66666667,2.739514717,1,-50,"{""FishSmall"":2,""FishBig"":1,""CanSmall"":0,""CanBig"":0,""Seaweed"":0}","{""FishSmall"":0,""FishBig"":1,""CanSmall"":0,""CanBig"":2,""Seaweed"":0}",1,2425.96,0.961538462,2,2,2,2,2,2,2,1,2,2,2,2,2,100,17,0.9
3627213,5,65,Male,1,4-May,0,1,trial_17,,0,0,,6093.72,5711.33,3752.855,"{""FishSmall"":1,""FishBig"":0,""CanSmall"":2,""CanBig"":1,""Seaweed"":2}","{""FishSmall"":1,""FishBig"":1,""CanSmall"":1,""CanBig"":0,""Seaweed"":3}",100,100,-5,3.333333333,9.574271078,9.428090416,2,3,8.333333333,-0.146180662,1,0,"{""FishSmall"":0,""FishBig"":0,""CanSmall"":2,""CanBig"":1,""Seaweed"":0}","{""FishSmall"":2,""FishBig"":0,""CanSmall"":1,""CanBig"":0,""Seaweed"":0}",1,2425.96,0.961538462,2,2,2,2,2,2,2,1,2,2,2,2,2,100,18,0.9
3627213,5,65,Male,1,4-May,0,1,trial_18,,0,,,7763.13,,2886.245,"{""FishSmall"":2,""FishBig"":0,""CanSmall"":1,""CanBig"":0,""Seaweed"":3}","{""FishSmall"":0,""FishBig"":0,""CanSmall"":2,""CanBig"":2,""Seaweed"":2}",100,0,1.666666667,-10,6.871842709,8.164965809,3,2,-11.66666667,1.2931231,-1,-100,"{""FishSmall"":0,""FishBig"":0,""CanSmall"":2,""CanBig"":1,""Seaweed"":0}","{""FishSmall"":0,""FishBig"":2,""CanSmall"":1,""CanBig"":0,""Seaweed"":0}",1,2425.96,0.961538462,2,2,2,2,2,2,2,1,2,2,2,2,2,100,19,0.9
3627213,5,65,Male,1,4-May,0,0,trial_19,,0,0,,6777.645,1549.155,7257.45,"{""FishSmall"":2,""FishBig"":2,""CanSmall"":0,""CanBig"":0,""Seaweed"":2}","{""FishSmall"":0,""FishBig"":0,""CanSmall"":4,""CanBig"":1,""Seaweed"":1}",50,0,10,-10,8.164965809,5.773502692,2,1,-20,-2.391463117,-1,-50,"{""FishSmall"":1,""FishBig"":2,""CanSmall"":0,""CanBig"":0,""Seaweed"":0}","{""FishSmall"":0,""FishBig"":1,""CanSmall"":1,""CanBig"":1,""Seaweed"":0}",1,2425.96,0.961538462,2,2,2,2,2,2,2,1,2,2,2,2,2,100,20,0.9
3627213,5,65,Male,1,4-May,0,1,trial_20,,,0,,5187.805,1493.58,,"{""FishSmall"":1,""FishBig"":0,""CanSmall"":1,""CanBig"":1,""Seaweed"":3}","{""FishSmall"":3,""FishBig"":2,""CanSmall"":0,""CanBig"":0,""Seaweed"":1}",0,50,-3.333333333,11.66666667,9.428090416,6.871842709,3,1,15,-2.556247706,-2,50,"{""FishSmall"":1,""FishBig"":1,""CanSmall"":0,""CanBig"":1,""Seaweed"":0}","{""FishSmall"":2,""FishBig"":1,""CanSmall"":0,""CanBig"":0,""Seaweed"":0}",1,2425.96,0.961538462,2,2,2,2,2,2,2,1,2,2,2,2,2,100,21,0.9
3627213,,,,,,,,catch_2,1,,,6611.935,,,,"{""FishSmall"":0,""FishBig"":0,""CanSmall"":3,""CanBig"":3,""Seaweed"":0}","{""FishSmall"":0,""FishBig"":0,""CanSmall"":3,""CanBig"":3,""Seaweed"":0}",0,0,,,,,,,,,,,"{""FishSmall"":0,""FishBig"":0,""CanSmall"":2,""CanBig"":1,""Seaweed"":0}","{""FishSmall"":0,""FishBig"":0,""CanSmall"":1,""CanBig"":2,""Seaweed"":0}",,,,,,,,,,,,,,,,,100,22,0.9
3627213,5,65,Male,1,4-May,0,0,trial_21,,0,,,2490.52,,5604.91,"{""FishSmall"":0,""FishBig"":1,""CanSmall"":0,""CanBig"":1,""Seaweed"":4}","{""FishSmall"":0,""FishBig"":0,""CanSmall"":3,""CanBig"":1,""Seaweed"":2}",50,50,0,-8.333333333,11.54700538,6.871842709,4,2,-8.333333333,-4.675162674,-2,0,"{""FishSmall"":0,""FishBig"":1,""CanSmall"":1,""CanBig"":1,""Seaweed"":0}","{""FishSmall"":0,""FishBig"":0,""CanSmall"":2,""CanBig"":1,""Seaweed"":0}",1,2425.96,0.961538462,2,2,2,2,2,2,2,1,2,2,2,2,2,100,23,0.9
3627213,5,65,Male,1,4-May,0,0,trial_22,,,,,3436.81,,,"{""FishSmall"":0,""FishBig"":4,""CanSmall"":0,""CanBig"":0,""Seaweed"":2}","{""FishSmall"":0,""FishBig"":0,""CanSmall"":0,""CanBig"":4,""Seaweed"":2}",0,0,13.33333333,-13.33333333,9.428090416,9.428090416,2,2,-26.66666667,0,0,0,"{""FishSmall"":0,""FishBig"":2,""CanSmall"":0,""CanBig"":1,""Seaweed"":0}","{""FishSmall"":1,""FishBig"":0,""CanSmall"":0,""CanBig"":2,""Seaweed"":0}",1,2425.96,0.961538462,2,2,2,2,2,2,2,1,2,2,2,2,2,100,24,0.9
3627213,5,65,Male,1,4-May,0,1,trial_23,,,0,,3549.84,1572.43,,"{""FishSmall"":0,""FishBig"":0,""CanSmall"":1,""CanBig"":2,""Seaweed"":3}","{""FishSmall"":1,""FishBig"":1,""CanSmall"":1,""CanBig"":0,""Seaweed"":3}",0,50,-8.333333333,3.333333333,8.975274679,9.428090416,3,3,11.66666667,0.452815737,0,50,"{""FishSmall"":0,""FishBig"":1,""CanSmall"":1,""CanBig"":1,""Seaweed"":0}","{""FishSmall"":1,""FishBig"":2,""CanSmall"":0,""CanBig"":0,""Seaweed"":0}",1,2425.96,0.961538462,2,2,2,2,2,2,2,1,2,2,2,2,2,100,25,0.9
3627213,5,65,Male,1,4-May,0,0,trial_24,,,0,,7044.985,2526.33,,"{""FishSmall"":1,""FishBig"":2,""CanSmall"":0,""CanBig"":0,""Seaweed"":3}","{""FishSmall"":0,""FishBig"":0,""CanSmall"":4,""CanBig"":0,""Seaweed"":2}",50,50,8.333333333,-6.666666667,8.975274679,4.714045208,3,2,-15,-4.261229471,-1,0,"{""FishSmall"":1,""FishBig"":1,""CanSmall"":1,""CanBig"":0,""Seaweed"":0}","{""FishSmall"":0,""FishBig"":1,""CanSmall"":2,""CanBig"":0,""Seaweed"":0}",1,2425.96,0.961538462,2,2,2,2,2,2,2,1,2,2,2,2,2,100,26,0.9
3627213,5,65,Male,1,4-May,0,1,trial_25,,,,,4544.865,,,"{""FishSmall"":0,""FishBig"":0,""CanSmall"":2,""CanBig"":2,""Seaweed"":2}","{""FishSmall"":2,""FishBig"":0,""CanSmall"":3,""CanBig"":0,""Seaweed"":1}",0,50,-10,-1.666666667,8.164965809,8.975274679,2,1,8.333333333,0.810308869,-1,50,"{""FishSmall"":1,""FishBig"":0,""CanSmall"":1,""CanBig"":1,""Seaweed"":0}","{""FishSmall"":1,""FishBig"":0,""CanSmall"":2,""CanBig"":0,""Seaweed"":0}",1,2425.96,0.961538462,2,2,2,2,2,2,2,1,2,2,2,2,2,100,27,0.9
3627213,5,65,Male,1,4-May,0,1,trial_26,,,0,,2279.785,2837.995,,"{""FishSmall"":0,""FishBig"":0,""CanSmall"":0,""CanBig"":4,""Seaweed"":2}","{""FishSmall"":0,""FishBig"":0,""CanSmall"":2,""CanBig"":1,""Seaweed"":3}",50,100,-13.33333333,-6.666666667,9.428090416,7.453559925,2,3,6.666666667,-1.974530491,1,50,"{""FishSmall"":0,""FishBig"":0,""CanSmall"":0,""CanBig"":3,""Seaweed"":0}","{""FishSmall"":0,""FishBig"":1,""CanSmall"":2,""CanBig"":0,""Seaweed"":0}",1,2425.96,0.961538462,2,2,2,2,2,2,2,1,2,2,2,2,2,100,28,0.9
3627213,5,65,Male,1,4-May,0,0,trial_27,,1,0,,4566.075,7745.455,1931.855,"{""FishSmall"":0,""FishBig"":0,""CanSmall"":3,""CanBig"":1,""Seaweed"":2}","{""FishSmall"":1,""FishBig"":0,""CanSmall"":3,""CanBig"":1,""Seaweed"":1}",100,50,-8.333333333,-6.666666667,6.871842709,9.428090416,2,1,1.666666667,2.556247706,-1,-50,"{""FishSmall"":0,""FishBig"":0,""CanSmall"":2,""CanBig"":1,""Seaweed"":0}","{""FishSmall"":0,""FishBig"":0,""CanSmall"":2,""CanBig"":1,""Seaweed"":0}",1,2425.96,0.961538462,2,2,2,2,2,2,2,1,2,2,2,2,2,100,29,0.9
3627213,5,65,Male,1,4-May,0,1,trial_28,,0,0,,7628.62,3692.015,1987.925,"{""FishSmall"":1,""FishBig"":0,""CanSmall"":3,""CanBig"":1,""Seaweed"":1}","{""FishSmall"":2,""FishBig"":0,""CanSmall"":2,""CanBig"":0,""Seaweed"":2}",50,50,-6.666666667,0,9.428090416,8.164965809,1,2,6.666666667,-1.263124607,1,0,"{""FishSmall"":1,""FishBig"":0,""CanSmall"":1,""CanBig"":1,""Seaweed"":0}","{""FishSmall"":1,""FishBig"":0,""CanSmall"":1,""CanBig"":1,""Seaweed"":0}",1,2425.96,0.961538462,2,2,2,2,2,2,2,1,2,2,2,2,2,100,30,0.9
3627213,5,65,Male,1,4-May,0,0,trial_29,,0,0,,1122.48,7366.27,1158.68,"{""FishSmall"":1,""FishBig"":0,""CanSmall"":1,""CanBig"":1,""Seaweed"":3}","{""FishSmall"":2,""FishBig"":0,""CanSmall"":1,""CanBig"":0,""Seaweed"":3}",100,100,-3.333333333,1.666666667,9.428090416,6.871842709,3,3,5,-2.556247706,0,0,"{""FishSmall"":1,""FishBig"":0,""CanSmall"":1,""CanBig"":1,""Seaweed"":0}","{""FishSmall"":1,""FishBig"":2,""CanSmall"":0,""CanBig"":0,""Seaweed"":0}",1,2425.96,0.961538462,2,2,2,2,2,2,2,1,2,2,2,2,2,100,31,0.9
3627213,5,65,Male,1,4-May,0,1,trial_30,,0,0,,3822.495,7470.485,1894.655,"{""FishSmall"":1,""FishBig"":0,""CanSmall"":2,""CanBig"":1,""Seaweed"":2}","{""FishSmall"":1,""FishBig"":4,""CanSmall"":0,""CanBig"":0,""Seaweed"":1}",50,100,-5,15,9.574271078,7.637626158,2,1,20,-1.936644919,-1,50,"{""FishSmall"":1,""FishBig"":1,""CanSmall"":0,""CanBig"":1,""Seaweed"":0}","{""FishSmall"":0,""FishBig"":2,""CanSmall"":1,""CanBig"":0,""Seaweed"":0}",1,2425.96,0.961538462,2,2,2,2,2,2,2,1,2,2,2,2,2,100,32,0.9
3627405,7,86,Female,2,6-Jul,1,0,trial_1,,1,1,,4329.085,5816.25,994.245,"{""FishSmall"":3,""FishBig"":1,""CanSmall"":1,""CanBig"":0,""Seaweed"":1}","{""FishSmall"":0,""FishBig"":0,""CanSmall"":4,""CanBig"":2,""Seaweed"":0}",100,100,6.666666667,-13.33333333,9.428090416,4.714045208,1,0,-20,-4.714045208,-1,0,"{""FishSmall"":1,""FishBig"":0,""CanSmall"":1,""CanBig"":1,""Seaweed"":0}","{""FishSmall"":0,""FishBig"":0,""CanSmall"":2,""CanBig"":1,""Seaweed"":0}",0.9,1657.444,1,2,2,2,2,2,2,2,2,2,2,2,2,2,100,1,0.5
3627405,7,86,Female,2,6-Jul,1,1,trial_2,,1,,,4848.36,,7084.225,"{""FishSmall"":0,""FishBig"":0,""CanSmall"":2,""CanBig"":4,""Seaweed"":0}","{""FishSmall"":2,""FishBig"":3,""CanSmall"":0,""CanBig"":0,""Seaweed"":1}",100,0,-16.66666667,13.33333333,4.714045208,7.453559925,0,1,30,2.739514717,1,-100,"{""FishSmall"":0,""FishBig"":0,""CanSmall"":1,""CanBig"":2,""Seaweed"":0}","{""FishSmall"":1,""FishBig"":2,""CanSmall"":0,""CanBig"":0,""Seaweed"":0}",0.9,1657.444,1,2,2,2,2,2,2,2,2,2,2,2,2,2,100,2,0.5
3627405,7,86,Female,2,6-Jul,1,0,trial_3,,0,,,2431.44,,5807.42,"{""FishSmall"":2,""FishBig"":1,""CanSmall"":1,""CanBig"":0,""Seaweed"":2}","{""FishSmall"":2,""FishBig"":3,""CanSmall"":0,""CanBig"":0,""Seaweed"":1}",100,0,5,13.33333333,9.574271078,7.453559925,2,1,8.333333333,-2.120711153,-1,-100,"{""FishSmall"":1,""FishBig"":0,""CanSmall"":1,""CanBig"":1,""Seaweed"":0}","{""FishSmall"":2,""FishBig"":1,""CanSmall"":0,""CanBig"":0,""Seaweed"":0}",0.9,1657.444,1,2,2,2,2,2,2,2,2,2,2,2,2,2,100,3,0.5
3627405,7,86,Female,2,6-Jul,1,1,trial_4,,1,0,,4145.485,7459.605,7216.37,"{""FishSmall"":0,""FishBig"":0,""CanSmall"":4,""CanBig"":1,""Seaweed"":1}","{""FishSmall"":0,""FishBig"":0,""CanSmall"":1,""CanBig"":2,""Seaweed"":3}",50,50,-10,-8.333333333,5.773502692,8.975274679,1,3,1.666666667,3.201771987,2,0,"{""FishSmall"":0,""FishBig"":0,""CanSmall"":2,""CanBig"":1,""Seaweed"":0}","{""FishSmall"":2,""FishBig"":1,""CanSmall"":0,""CanBig"":0,""Seaweed"":0}",0.9,1657.444,1,2,2,2,2,2,2,2,2,2,2,2,2,2,100,4,0.5
3627405,7,86,Female,2,6-Jul,1,1,trial_5,,1,0,,5954.435,7684.615,3196.04,"{""FishSmall"":1,""FishBig"":0,""CanSmall"":3,""CanBig"":1,""Seaweed"":1}","{""FishSmall"":0,""FishBig"":4,""CanSmall"":0,""CanBig"":0,""Seaweed"":2}",100,50,-6.666666667,13.33333333,9.428090416,9.428090416,1,2,20,1.78E-15,1,-50,"{""FishSmall"":1,""FishBig"":0,""CanSmall"":2,""CanBig"":0,""Seaweed"":0}","{""FishSmall"":0,""FishBig"":3,""CanSmall"":0,""CanBig"":0,""Seaweed"":0}",0.9,1657.444,1,2,2,2,2,2,2,2,2,2,2,2,2,2,100,5,0.5
3627405,7,86,Female,2,6-Jul,1,0,trial_6,,0,,,3907.405,,6757.86,"{""FishSmall"":1,""FishBig"":0,""CanSmall"":2,""CanBig"":0,""Seaweed"":3}","{""FishSmall"":0,""FishBig"":0,""CanSmall"":2,""CanBig"":3,""Seaweed"":1}",100,0,-1.666666667,-13.33333333,6.871842709,7.453559925,3,1,-11.66666667,0.581717216,-2,-100,"{""FishSmall"":2,""FishBig"":0,""CanSmall"":1,""CanBig"":0,""Seaweed"":0}","{""FishSmall"":0,""FishBig"":0,""CanSmall"":2,""CanBig"":1,""Seaweed"":0}",0.9,1657.444,1,2,2,2,2,2,2,2,2,2,2,2,2,2,100,6,0.5
3627405,7,86,Female,2,6-Jul,1,0,trial_7,,1,,,1348.365,,6583.685,"{""FishSmall"":1,""FishBig"":0,""CanSmall"":2,""CanBig"":0,""Seaweed"":3}","{""FishSmall"":3,""FishBig"":2,""CanSmall"":0,""CanBig"":0,""Seaweed"":1}",100,50,-1.666666667,11.66666667,6.871842709,6.871842709,3,1,13.33333333,0,-2,-50,"{""FishSmall"":1,""FishBig"":0,""CanSmall"":1,""CanBig"":1,""Seaweed"":0}","{""FishSmall"":1,""FishBig"":1,""CanSmall"":1,""CanBig"":0,""Seaweed"":0}",0.9,1657.444,1,2,2,2,2,2,2,2,2,2,2,2,2,2,100,7,0.5
3627405,7,86,Female,2,6-Jul,1,1,trial_8,,,,,4101.165,,,"{""FishSmall"":0,""FishBig"":0,""CanSmall"":2,""CanBig"":4,""Seaweed"":0}","{""FishSmall"":1,""FishBig"":0,""CanSmall"":3,""CanBig"":1,""Seaweed"":1}",0,50,-16.66666667,-6.666666667,4.714045208,9.428090416,0,1,10,4.714045208,1,50,"{""FishSmall"":0,""FishBig"":0,""CanSmall"":2,""CanBig"":1,""Seaweed"":0}","{""FishSmall"":1,""FishBig"":0,""CanSmall"":1,""CanBig"":1,""Seaweed"":0}",0.9,1657.444,1,2,2,2,2,2,2,2,2,2,2,2,2,2,100,8,0.5
3627405,7,86,Female,2,6-Jul,1,0,trial_9,,1,,,4718.22,,428.07,"{""FishSmall"":2,""FishBig"":0,""CanSmall"":2,""CanBig"":0,""Seaweed"":2}","{""FishSmall"":1,""FishBig"":0,""CanSmall"":1,""CanBig"":1,""Seaweed"":3}",50,0,0,-3.333333333,8.164965809,9.428090416,2,3,-3.333333333,1.263124607,1,-50,"{""FishSmall"":2,""FishBig"":0,""CanSmall"":1,""CanBig"":0,""Seaweed"":0}","{""FishSmall"":1,""FishBig"":1,""CanSmall"":0,""CanBig"":1,""Seaweed"":0}",0.9,1657.444,1,2,2,2,2,2,2,2,2,2,2,2,2,2,100,9,0.5
3627405,7,86,Female,2,6-Jul,1,0,trial_10,,1,,,4391.07,,4097.525,"{""FishSmall"":0,""FishBig"":1,""CanSmall"":0,""CanBig"":1,""Seaweed"":4}","{""FishSmall"":5,""FishBig"":0,""CanSmall"":1,""CanBig"":0,""Seaweed"":0}",100,0,0,6.666666667,11.54700538,7.453559925,4,0,6.666666667,-4.093445459,-4,-100,"{""FishSmall"":1,""FishBig"":0,""CanSmall"":1,""CanBig"":1,""Seaweed"":0}","{""FishSmall"":2,""FishBig"":0,""CanSmall"":1,""CanBig"":0,""Seaweed"":0}",0.9,1657.444,1,2,2,2,2,2,2,2,2,2,2,2,2,2,100,10,0.5
3627405,,,,,,,,catch_1,0,,,6504.06,,,,"{""FishSmall"":4,""FishBig"":2,""CanSmall"":0,""CanBig"":0,""Seaweed"":0}","{""FishSmall"":4,""FishBig"":2,""CanSmall"":0,""CanBig"":0,""Seaweed"":0}",0,0,,,,,,,,,,,"{""FishSmall"":2,""FishBig"":1,""CanSmall"":0,""CanBig"":0,""Seaweed"":0}","{""FishSmall"":3,""FishBig"":0,""CanSmall"":0,""CanBig"":0,""Seaweed"":0}",,,,,,,,,,,,,,,,,100,11,0.5
3627405,7,86,Female,2,6-Jul,1,0,trial_11,,0,,,5889.58,,6516.15,"{""FishSmall"":4,""FishBig"":0,""CanSmall"":1,""CanBig"":0,""Seaweed"":1}","{""FishSmall"":1,""FishBig"":0,""CanSmall"":3,""CanBig"":1,""Seaweed"":1}",50,0,5,-6.666666667,7.637626158,9.428090416,1,1,-11.66666667,1.790464258,0,-50,"{""FishSmall"":2,""FishBig"":1,""CanSmall"":0,""CanBig"":0,""Seaweed"":0}","{""FishSmall"":1,""FishBig"":0,""CanSmall"":1,""CanBig"":1,""Seaweed"":0}",0.9,1657.444,1,2,2,2,2,2,2,2,2,2,2,2,2,2,100,12,0.5
3627405,7,86,Female,2,6-Jul,1,1,trial_12,,,,,4218.38,,,"{""FishSmall"":0,""FishBig"":0,""CanSmall"":0,""CanBig"":5,""Seaweed"":1}","{""FishSmall"":0,""FishBig"":0,""CanSmall"":3,""CanBig"":1,""Seaweed"":2}",0,0,-16.66666667,-8.333333333,7.453559925,6.871842709,1,2,8.333333333,-0.581717216,1,0,"{""FishSmall"":0,""FishBig"":0,""CanSmall"":0,""CanBig"":3,""Seaweed"":0}","{""FishSmall"":0,""FishBig"":0,""CanSmall"":1,""CanBig"":2,""Seaweed"":0}",0.9,1657.444,1,2,2,2,2,2,2,2,2,2,2,2,2,2,100,13,0.5
3627405,7,86,Female,2,6-Jul,1,1,trial_13,,1,,,4089.855,,9485.415,"{""FishSmall"":0,""FishBig"":0,""CanSmall"":2,""CanBig"":2,""Seaweed"":2}","{""FishSmall"":3,""FishBig"":1,""CanSmall"":0,""CanBig"":0,""Seaweed"":2}",50,50,-10,8.333333333,8.164965809,6.871842709,2,2,18.33333333,-1.2931231,0,0,"{""FishSmall"":0,""FishBig"":0,""CanSmall"":2,""CanBig"":1,""Seaweed"":0}","{""FishSmall"":1,""FishBig"":1,""CanSmall"":0,""CanBig"":1,""Seaweed"":0}",0.9,1657.444,1,2,2,2,2,2,2,2,2,2,2,2,2,2,100,14,0.5
3627405,7,86,Female,2,6-Jul,1,0,trial_14,,1,,,2211.54,,7610.54,"{""FishSmall"":0,""FishBig"":0,""CanSmall"":4,""CanBig"":1,""Seaweed"":1}","{""FishSmall"":1,""FishBig"":0,""CanSmall"":3,""CanBig"":0,""Seaweed"":2}",100,0,-10,-3.333333333,5.773502692,7.453559925,1,2,6.666666667,1.680057233,1,-100,"{""FishSmall"":0,""FishBig"":0,""CanSmall"":2,""CanBig"":1,""Seaweed"":0}","{""FishSmall"":0,""FishBig"":0,""CanSmall"":3,""CanBig"":0,""Seaweed"":0}",0.9,1657.444,1,2,2,2,2,2,2,2,2,2,2,2,2,2,100,15,0.5
3627405,7,86,Female,2,6-Jul,1,0,trial_15,,,,,2551.69,,,"{""FishSmall"":2,""FishBig"":2,""CanSmall"":0,""CanBig"":0,""Seaweed"":2}","{""FishSmall"":3,""FishBig"":1,""CanSmall"":1,""CanBig"":0,""Seaweed"":1}",0,0,10,6.666666667,8.164965809,9.428090416,2,1,-3.333333333,1.263124607,-1,0,"{""FishSmall"":1,""FishBig"":0,""CanSmall"":0,""CanBig"":2,""Seaweed"":0}","{""FishSmall"":2,""FishBig"":0,""CanSmall"":1,""CanBig"":0,""Seaweed"":0}",0.9,1657.444,1,2,2,2,2,2,2,2,2,2,2,2,2,2,100,16,0.5
3627405,7,86,Female,2,6-Jul,1,0,trial_16,,1,,,4812.615,,2950.38,"{""FishSmall"":0,""FishBig"":0,""CanSmall"":1,""CanBig"":2,""Seaweed"":3}","{""FishSmall"":2,""FishBig"":0,""CanSmall"":4,""CanBig"":0,""Seaweed"":0}",50,0,-8.333333333,-3.333333333,8.975274679,9.428090416,3,0,5,0.452815737,-3,-50,"{""FishSmall"":0,""FishBig"":0,""CanSmall"":1,""CanBig"":2,""Seaweed"":0}","{""FishSmall"":2,""FishBig"":0,""CanSmall"":1,""CanBig"":0,""Seaweed"":0}",0.9,1657.444,1,2,2,2,2,2,2,2,2,2,2,2,2,2,100,17,0.5
3627405,7,86,Female,2,6-Jul,1,0,trial_17,,0,,,1502.93,,7019.585,"{""FishSmall"":3,""FishBig"":1,""CanSmall"":0,""CanBig"":0,""Seaweed"":2}","{""FishSmall"":1,""FishBig"":0,""CanSmall"":3,""CanBig"":1,""Seaweed"":1}",50,0,8.333333333,-6.666666667,6.871842709,9.428090416,2,1,-15,2.556247706,-1,-50,"{""FishSmall"":2,""FishBig"":0,""CanSmall"":0,""CanBig"":1,""Seaweed"":0}","{""FishSmall"":0,""FishBig"":0,""CanSmall"":2,""CanBig"":1,""Seaweed"":0}",0.9,1657.444,1,2,2,2,2,2,2,2,2,2,2,2,2,2,100,18,0.5
3627405,7,86,Female,2,6-Jul,1,1,trial_18,,,,,3087.305,,,"{""FishSmall"":3,""FishBig"":1,""CanSmall"":1,""CanBig"":0,""Seaweed"":1}","{""FishSmall"":4,""FishBig"":1,""CanSmall"":0,""CanBig"":0,""Seaweed"":1}",0,50,6.666666667,10,9.428090416,5.773502692,1,1,3.333333333,-3.654587724,0,50,"{""FishSmall"":2,""FishBig"":0,""CanSmall"":0,""CanBig"":1,""Seaweed"":0}","{""FishSmall"":2,""FishBig"":1,""CanSmall"":0,""CanBig"":0,""Seaweed"":0}",0.9,1657.444,1,2,2,2,2,2,2,2,2,2,2,2,2,2,100,19,0.5
3627405,7,86,Female,2,6-Jul,1,0,trial_19,,0,,,1130.105,,6924.105,"{""FishSmall"":1,""FishBig"":1,""CanSmall"":1,""CanBig"":0,""Seaweed"":3}","{""FishSmall"":1,""FishBig"":3,""CanSmall"":0,""CanBig"":0,""Seaweed"":2}",100,0,3.333333333,11.66666667,9.428090416,8.975274679,3,2,8.333333333,-0.452815737,-1,-100,"{""FishSmall"":1,""FishBig"":1,""CanSmall"":1,""CanBig"":0,""Seaweed"":0}","{""FishSmall"":0,""FishBig"":2,""CanSmall"":1,""CanBig"":0,""Seaweed"":0}",0.9,1657.444,1,2,2,2,2,2,2,2,2,2,2,2,2,2,100,20,0.5
3627405,7,86,Female,2,6-Jul,1,1,trial_20,,,,,4111.055,,,"{""FishSmall"":0,""FishBig"":1,""CanSmall"":0,""CanBig"":1,""Seaweed"":4}","{""FishSmall"":2,""FishBig"":0,""CanSmall"":2,""CanBig"":0,""Seaweed"":2}",0,0,0,0,11.54700538,8.164965809,4,2,0,-3.382039575,-2,0,"{""FishSmall"":0,""FishBig"":2,""CanSmall"":1,""CanBig"":0,""Seaweed"":0}","{""FishSmall"":1,""FishBig"":0,""CanSmall"":2,""CanBig"":0,""Seaweed"":0}",0.9,1657.444,1,2,2,2,2,2,2,2,2,2,2,2,2,2,100,21,0.5
3627405,,,,,,,,catch_2,1,,,6966.72,,,,"{""FishSmall"":0,""FishBig"":0,""CanSmall"":3,""CanBig"":3,""Seaweed"":0}","{""FishSmall"":0,""FishBig"":0,""CanSmall"":3,""CanBig"":3,""Seaweed"":0}",0,0,,,,,,,,,,,"{""FishSmall"":0,""FishBig"":0,""CanSmall"":3,""CanBig"":0,""Seaweed"":0}","{""FishSmall"":0,""FishBig"":0,""CanSmall"":2,""CanBig"":1,""Seaweed"":0}",,,,,,,,,,,,,,,,,100,22,0.5
3627405,7,86,Female,2,6-Jul,1,1,trial_21,,0,1,,5671.39,5011.465,1717.385,"{""FishSmall"":4,""FishBig"":0,""CanSmall"":1,""CanBig"":0,""Seaweed"":1}","{""FishSmall"":3,""FishBig"":0,""CanSmall"":2,""CanBig"":0,""Seaweed"":1}",100,100,5,1.666666667,7.637626158,8.975274679,1,1,-3.333333333,1.33764852,0,0,"{""FishSmall"":2,""FishBig"":0,""CanSmall"":1,""CanBig"":0,""Seaweed"":0}","{""FishSmall"":1,""FishBig"":0,""CanSmall"":2,""CanBig"":0,""Seaweed"":0}",0.9,1657.444,1,2,2,2,2,2,2,2,2,2,2,2,2,2,100,23,0.5
3627405,7,86,Female,2,6-Jul,1,1,trial_22,,,0,,3991.41,4281.605,,"{""FishSmall"":3,""FishBig"":3,""CanSmall"":0,""CanBig"":0,""Seaweed"":0}","{""FishSmall"":1,""FishBig"":4,""CanSmall"":0,""CanBig"":0,""Seaweed"":1}",50,50,15,15,5,7.637626158,0,1,0,2.637626158,1,0,"{""FishSmall"":1,""FishBig"":2,""CanSmall"":0,""CanBig"":0,""Seaweed"":0}","{""FishSmall"":0,""FishBig"":3,""CanSmall"":0,""CanBig"":0,""Seaweed"":0}",0.9,1657.444,1,2,2,2,2,2,2,2,2,2,2,2,2,2,100,24,0.5
3627405,7,86,Female,2,6-Jul,1,1,trial_23,,,0,,1495.335,7310.08,,"{""FishSmall"":1,""FishBig"":0,""CanSmall"":1,""CanBig"":1,""Seaweed"":3}","{""FishSmall"":2,""FishBig"":3,""CanSmall"":0,""CanBig"":0,""Seaweed"":1}",50,100,-3.333333333,13.33333333,9.428090416,7.453559925,3,1,16.66666667,-1.974530491,-2,50,"{""FishSmall"":1,""FishBig"":0,""CanSmall"":1,""CanBig"":1,""Seaweed"":0}","{""FishSmall"":1,""FishBig"":2,""CanSmall"":0,""CanBig"":0,""Seaweed"":0}",0.9,1657.444,1,2,2,2,2,2,2,2,2,2,2,2,2,2,100,25,0.5
3627405,7,86,Female,2,6-Jul,1,0,trial_24,,1,1,,1382.74,1157.675,2329.95,"{""FishSmall"":1,""FishBig"":0,""CanSmall"":1,""CanBig"":1,""Seaweed"":3}","{""FishSmall"":1,""FishBig"":0,""CanSmall"":3,""CanBig"":0,""Seaweed"":2}",50,100,-3.333333333,-3.333333333,9.428090416,7.453559925,3,2,0,-1.974530491,-1,50,"{""FishSmall"":1,""FishBig"":0,""CanSmall"":1,""CanBig"":1,""Seaweed"":0}","{""FishSmall"":1,""FishBig"":0,""CanSmall"":1,""CanBig"":1,""Seaweed"":0}",0.9,1657.444,1,2,2,2,2,2,2,2,2,2,2,2,2,2,100,26,0.5
3627405,7,86,Female,2,6-Jul,1,1,trial_25,,,0,,1154.955,1882.075,,"{""FishSmall"":0,""FishBig"":0,""CanSmall"":2,""CanBig"":3,""Seaweed"":1}","{""FishSmall"":1,""FishBig"":0,""CanSmall"":2,""CanBig"":0,""Seaweed"":3}",0,100,-13.33333333,-1.666666667,7.453559925,6.871842709,1,3,11.66666667,-0.581717216,2,100,"{""FishSmall"":0,""FishBig"":0,""CanSmall"":3,""CanBig"":0,""Seaweed"":0}","{""FishSmall"":0,""FishBig"":1,""CanSmall"":1,""CanBig"":1,""Seaweed"":0}",0.9,1657.444,1,2,2,2,2,2,2,2,2,2,2,2,2,2,100,27,0.5
3627405,7,86,Female,2,6-Jul,1,1,trial_26,,,0,,1108.02,7427.77,,"{""FishSmall"":0,""FishBig"":0,""CanSmall"":2,""CanBig"":1,""Seaweed"":3}","{""FishSmall"":2,""FishBig"":1,""CanSmall"":1,""CanBig"":0,""Seaweed"":2}",50,50,-6.666666667,5,7.453559925,9.574271078,3,2,11.66666667,2.120711153,-1,0,"{""FishSmall"":0,""FishBig"":0,""CanSmall"":2,""CanBig"":1,""Seaweed"":0}","{""FishSmall"":1,""FishBig"":1,""CanSmall"":1,""CanBig"":0,""Seaweed"":0}",0.9,1657.444,1,2,2,2,2,2,2,2,2,2,2,2,2,2,100,28,0.5
3627405,7,86,Female,2,6-Jul,1,0,trial_27,,,,,3622.265,,,"{""FishSmall"":1,""FishBig"":0,""CanSmall"":3,""CanBig"":0,""Seaweed"":2}","{""FishSmall"":0,""FishBig"":0,""CanSmall"":4,""CanBig"":2,""Seaweed"":0}",0,50,-3.333333333,-13.33333333,7.453559925,4.714045208,2,0,-10,-2.739514717,-2,50,"{""FishSmall"":1,""FishBig"":0,""CanSmall"":2,""CanBig"":0,""Seaweed"":0}","{""FishSmall"":0,""FishBig"":0,""CanSmall"":1,""CanBig"":2,""Seaweed"":0}",0.9,1657.444,1,2,2,2,2,2,2,2,2,2,2,2,2,2,100,29,0.5
3627405,7,86,Female,2,6-Jul,1,1,trial_28,,0,0,,4180.27,6706.36,7915.815,"{""FishSmall"":2,""FishBig"":3,""CanSmall"":0,""CanBig"":0,""Seaweed"":1}","{""FishSmall"":2,""FishBig"":1,""CanSmall"":0,""CanBig"":0,""Seaweed"":3}",50,100,13.33333333,6.666666667,7.453559925,7.453559925,1,3,-6.666666667,0,2,50,"{""FishSmall"":1,""FishBig"":1,""CanSmall"":1,""CanBig"":0,""Seaweed"":0}","{""FishSmall"":1,""FishBig"":2,""CanSmall"":0,""CanBig"":0,""Seaweed"":0}",0.9,1657.444,1,2,2,2,2,2,2,2,2,2,2,2,2,2,100,30,0.5
3627405,7,86,Female,2,6-Jul,1,0,trial_29,,0,,,3801.285,,6925.445,"{""FishSmall"":4,""FishBig"":2,""CanSmall"":0,""CanBig"":0,""Seaweed"":0}","{""FishSmall"":2,""FishBig"":0,""CanSmall"":2,""CanBig"":0,""Seaweed"":2}",50,0,13.33333333,0,4.714045208,8.164965809,0,2,-13.33333333,3.450920601,2,-50,"{""FishSmall"":2,""FishBig"":1,""CanSmall"":0,""CanBig"":0,""Seaweed"":0}","{""FishSmall"":2,""FishBig"":0,""CanSmall"":1,""CanBig"":0,""Seaweed"":0}",0.9,1657.444,1,2,2,2,2,2,2,2,2,2,2,2,2,2,100,31,0.5
3627405,7,86,Female,2,6-Jul,1,1,trial_30,,0,1,,3784.535,1250.46,1504.63,"{""FishSmall"":2,""FishBig"":1,""CanSmall"":1,""CanBig"":0,""Seaweed"":2}","{""FishSmall"":1,""FishBig"":0,""CanSmall"":3,""CanBig"":0,""Seaweed"":2}",100,100,5,-3.333333333,9.574271078,7.453559925,2,2,-8.333333333,-2.120711153,0,0,"{""FishSmall"":2,""FishBig"":1,""CanSmall"":0,""CanBig"":0,""Seaweed"":0}","{""FishSmall"":1,""FishBig"":0,""CanSmall"":2,""CanBig"":0,""Seaweed"":0}",0.9,1657.444,1,2,2,2,2,2,2,2,2,2,2,2,2,2,100,32,0.5
3627998,10,128,Male,1,13-Oct,3,0,trial_1,,0,0,,1246.04,4843.415,1296.59,"{""FishSmall"":3,""FishBig"":1,""CanSmall"":1,""CanBig"":0,""Seaweed"":1}","{""FishSmall"":3,""FishBig"":0,""CanSmall"":1,""CanBig"":0,""Seaweed"":2}",100,50,6.666666667,3.333333333,9.428090416,7.453559925,1,2,-3.333333333,-1.974530491,1,-50,"{""FishSmall"":2,""FishBig"":1,""CanSmall"":0,""CanBig"":0,""Seaweed"":0}","{""FishSmall"":2,""FishBig"":1,""CanSmall"":0,""CanBig"":0,""Seaweed"":0}",1,879.3225,1,2,2,2,2,2,2,2,2,2,2,2,2,2,100,1,0.4
3627998,10,128,Male,1,13-Oct,3,0,trial_2,,,1,,832.575,5221.09,,"{""FishSmall"":0,""FishBig"":0,""CanSmall"":2,""CanBig"":2,""Seaweed"":2}","{""FishSmall"":0,""FishBig"":0,""CanSmall"":4,""CanBig"":1,""Seaweed"":1}",0,100,-10,-10,8.164965809,5.773502692,2,1,0,-2.391463117,-1,100,"{""FishSmall"":0,""FishBig"":1,""CanSmall"":1,""CanBig"":1,""Seaweed"":0}","{""FishSmall"":1,""FishBig"":0,""CanSmall"":1,""CanBig"":1,""Seaweed"":0}",1,879.3225,1,2,2,2,2,2,2,2,2,2,2,2,2,2,100,2,0.4
3627998,10,128,Male,1,13-Oct,3,0,trial_3,,,,,2744.275,,,"{""FishSmall"":0,""FishBig"":0,""CanSmall"":2,""CanBig"":2,""Seaweed"":2}","{""FishSmall"":0,""FishBig"":0,""CanSmall"":2,""CanBig"":2,""Seaweed"":2}",0,0,-10,-10,8.164965809,8.164965809,2,2,0,0,0,0,"{""FishSmall"":0,""FishBig"":0,""CanSmall"":2,""CanBig"":1,""Seaweed"":0}","{""FishSmall"":0,""FishBig"":0,""CanSmall"":0,""CanBig"":3,""Seaweed"":0}",1,879.3225,1,2,2,2,2,2,2,2,2,2,2,2,2,2,100,3,0.4
3627998,10,128,Male,1,13-Oct,3,0,trial_4,,0,,,919.92,,1080.77,"{""FishSmall"":2,""FishBig"":0,""CanSmall"":1,""CanBig"":0,""Seaweed"":3}","{""FishSmall"":1,""FishBig"":0,""CanSmall"":3,""CanBig"":0,""Seaweed"":2}",100,50,1.666666667,-3.333333333,6.871842709,7.453559925,3,2,-5,0.581717216,-1,-50,"{""FishSmall"":2,""FishBig"":1,""CanSmall"":0,""CanBig"":0,""Seaweed"":0}","{""FishSmall"":0,""FishBig"":0,""CanSmall"":3,""CanBig"":0,""Seaweed"":0}",1,879.3225,1,2,2,2,2,2,2,2,2,2,2,2,2,2,100,4,0.4
3627998,10,128,Male,1,13-Oct,3,0,trial_5,,1,,,3051.19,,2533.045,"{""FishSmall"":1,""FishBig"":0,""CanSmall"":2,""CanBig"":0,""Seaweed"":3}","{""FishSmall"":0,""FishBig"":0,""CanSmall"":2,""CanBig"":2,""Seaweed"":2}",100,0,-1.666666667,-10,6.871842709,8.164965809,3,2,-8.333333333,1.2931231,-1,-100,"{""FishSmall"":0,""FishBig"":0,""CanSmall"":2,""CanBig"":1,""Seaweed"":0}","{""FishSmall"":0,""FishBig"":1,""CanSmall"":1,""CanBig"":1,""Seaweed"":0}",1,879.3225,1,2,2,2,2,2,2,2,2,2,2,2,2,2,100,5,0.4
3627998,10,128,Male,1,13-Oct,3,1,trial_6,,,,,1956.24,,,"{""FishSmall"":1,""FishBig"":0,""CanSmall"":3,""CanBig"":1,""Seaweed"":1}","{""FishSmall"":2,""FishBig"":0,""CanSmall"":2,""CanBig"":0,""Seaweed"":2}",0,0,-6.666666667,0,9.428090416,8.164965809,1,2,6.666666667,-1.263124607,1,0,"{""FishSmall"":0,""FishBig"":0,""CanSmall"":2,""CanBig"":1,""Seaweed"":0}","{""FishSmall"":1,""FishBig"":2,""CanSmall"":0,""CanBig"":0,""Seaweed"":0}",1,879.3225,1,2,2,2,2,2,2,2,2,2,2,2,2,2,100,6,0.4
3627998,10,128,Male,1,13-Oct,3,1,trial_7,,,1,,10074.805,1931.395,,"{""FishSmall"":2,""FishBig"":1,""CanSmall"":1,""CanBig"":0,""Seaweed"":2}","{""FishSmall"":1,""FishBig"":0,""CanSmall"":3,""CanBig"":1,""Seaweed"":1}",0,100,5,-6.666666667,9.574271078,9.428090416,2,1,-11.66666667,-0.146180662,-1,100,"{""FishSmall"":2,""FishBig"":0,""CanSmall"":1,""CanBig"":0,""Seaweed"":0}","{""FishSmall"":0,""FishBig"":0,""CanSmall"":2,""CanBig"":1,""Seaweed"":0}",1,879.3225,1,2,2,2,2,2,2,2,2,2,2,2,2,2,100,7,0.4
3627998,10,128,Male,1,13-Oct,3,0,trial_8,,,,,4269.57,,,"{""FishSmall"":0,""FishBig"":0,""CanSmall"":1,""CanBig"":2,""Seaweed"":3}","{""FishSmall"":0,""FishBig"":0,""CanSmall"":2,""CanBig"":2,""Seaweed"":2}",50,0,-8.333333333,-10,8.975274679,8.164965809,3,2,-1.666666667,-0.810308869,-1,-50,"{""FishSmall"":0,""FishBig"":1,""CanSmall"":1,""CanBig"":1,""Seaweed"":0}","{""FishSmall"":0,""FishBig"":0,""CanSmall"":2,""CanBig"":1,""Seaweed"":0}",1,879.3225,1,2,2,2,2,2,2,2,2,2,2,2,2,2,100,8,0.4
3627998,10,128,Male,1,13-Oct,3,0,trial_9,,0,,,942.185,,1667.265,"{""FishSmall"":1,""FishBig"":0,""CanSmall"":2,""CanBig"":1,""Seaweed"":2}","{""FishSmall"":0,""FishBig"":0,""CanSmall"":1,""CanBig"":3,""Seaweed"":2}",100,0,-5,-11.66666667,9.574271078,8.975274679,2,2,-6.666666667,-0.598996399,0,-100,"{""FishSmall"":0,""FishBig"":2,""CanSmall"":1,""CanBig"":0,""Seaweed"":0}","{""FishSmall"":0,""FishBig"":0,""CanSmall"":1,""CanBig"":2,""Seaweed"":0}",1,879.3225,1,2,2,2,2,2,2,2,2,2,2,2,2,2,100,9,0.4
3627998,10,128,Male,1,13-Oct,3,0,trial_10,,0,,,1016.06,,1942.485,"{""FishSmall"":5,""FishBig"":0,""CanSmall"":1,""CanBig"":0,""Seaweed"":0}","{""FishSmall"":3,""FishBig"":1,""CanSmall"":1,""CanBig"":0,""Seaweed"":1}",100,0,6.666666667,6.666666667,7.453559925,9.428090416,0,1,0,1.974530491,1,-100,"{""FishSmall"":2,""FishBig"":0,""CanSmall"":1,""CanBig"":0,""Seaweed"":0}","{""FishSmall"":2,""FishBig"":1,""CanSmall"":0,""CanBig"":0,""Seaweed"":0}",1,879.3225,1,2,2,2,2,2,2,2,2,2,2,2,2,2,100,10,0.4
3627998,,,,,,,,catch_1,0,,,1277.87,,,,"{""FishSmall"":4,""FishBig"":2,""CanSmall"":0,""CanBig"":0,""Seaweed"":0}","{""FishSmall"":4,""FishBig"":2,""CanSmall"":0,""CanBig"":0,""Seaweed"":0}",0,0,,,,,,,,,,,"{""FishSmall"":2,""FishBig"":1,""CanSmall"":0,""CanBig"":0,""Seaweed"":0}","{""FishSmall"":2,""FishBig"":1,""CanSmall"":0,""CanBig"":0,""Seaweed"":0}",,,,,,,,,,,,,,,,,100,11,0.4
3627998,10,128,Male,1,13-Oct,3,0,trial_11,,,,,854.31,,,"{""FishSmall"":1,""FishBig"":4,""CanSmall"":0,""CanBig"":0,""Seaweed"":1}","{""FishSmall"":0,""FishBig"":0,""CanSmall"":3,""CanBig"":3,""Seaweed"":0}",0,0,15,-15,7.637626158,5,1,0,-30,-2.637626158,-1,0,"{""FishSmall"":1,""FishBig"":2,""CanSmall"":0,""CanBig"":0,""Seaweed"":0}","{""FishSmall"":0,""FishBig"":0,""CanSmall"":2,""CanBig"":1,""Seaweed"":0}",1,879.3225,1,2,2,2,2,2,2,2,2,2,2,2,2,2,100,12,0.4
3627998,10,128,Male,1,13-Oct,3,0,trial_12,,1,,,2162.815,,1806.91,"{""FishSmall"":0,""FishBig"":0,""CanSmall"":0,""CanBig"":5,""Seaweed"":1}","{""FishSmall"":3,""FishBig"":1,""CanSmall"":1,""CanBig"":0,""Seaweed"":1}",100,0,-16.66666667,6.666666667,7.453559925,9.428090416,1,1,23.33333333,1.974530491,0,-100,"{""FishSmall"":1,""FishBig"":0,""CanSmall"":0,""CanBig"":2,""Seaweed"":0}","{""FishSmall"":2,""FishBig"":0,""CanSmall"":1,""CanBig"":0,""Seaweed"":0}",1,879.3225,1,2,2,2,2,2,2,2,2,2,2,2,2,2,100,13,0.4
3627998,10,128,Male,1,13-Oct,3,1,trial_13,,,0,,7239.015,3306.86,,"{""FishSmall"":4,""FishBig"":0,""CanSmall"":1,""CanBig"":0,""Seaweed"":1}","{""FishSmall"":4,""FishBig"":1,""CanSmall"":1,""CanBig"":0,""Seaweed"":0}",50,100,5,8.333333333,7.637626158,8.975274679,1,0,3.333333333,1.33764852,-1,50,"{""FishSmall"":2,""FishBig"":0,""CanSmall"":1,""CanBig"":0,""Seaweed"":0}","{""FishSmall"":1,""FishBig"":1,""CanSmall"":1,""CanBig"":0,""Seaweed"":0}",1,879.3225,1,2,2,2,2,2,2,2,2,2,2,2,2,2,100,14,0.4
3627998,10,128,Male,1,13-Oct,3,0,trial_14,,0,1,,3080.36,14183.035,1524.6,"{""FishSmall"":3,""FishBig"":1,""CanSmall"":1,""CanBig"":0,""Seaweed"":1}","{""FishSmall"":1,""FishBig"":0,""CanSmall"":3,""CanBig"":0,""Seaweed"":2}",100,50,6.666666667,-3.333333333,9.428090416,7.453559925,1,2,-10,-1.974530491,1,-50,"{""FishSmall"":2,""FishBig"":0,""CanSmall"":1,""CanBig"":0,""Seaweed"":0}","{""FishSmall"":1,""FishBig"":0,""CanSmall"":1,""CanBig"":1,""Seaweed"":0}",1,879.3225,1,2,2,2,2,2,2,2,2,2,2,2,2,2,100,15,0.4
3627998,10,128,Male,1,13-Oct,3,0,trial_15,,0,1,,1007.915,2533.05,1462.5,"{""FishSmall"":2,""FishBig"":3,""CanSmall"":0,""CanBig"":0,""Seaweed"":1}","{""FishSmall"":0,""FishBig"":0,""CanSmall"":2,""CanBig"":2,""Seaweed"":2}",50,50,13.33333333,-10,7.453559925,8.164965809,1,2,-23.33333333,0.711405884,1,0,"{""FishSmall"":2,""FishBig"":1,""CanSmall"":0,""CanBig"":0,""Seaweed"":0}","{""FishSmall"":0,""FishBig"":0,""CanSmall"":1,""CanBig"":2,""Seaweed"":0}",1,879.3225,1,2,2,2,2,2,2,2,2,2,2,2,2,2,100,16,0.4
3627998,10,128,Male,1,13-Oct,3,1,trial_16,,,,,971.515,,,"{""FishSmall"":1,""FishBig"":0,""CanSmall"":2,""CanBig"":1,""Seaweed"":2}","{""FishSmall"":2,""FishBig"":0,""CanSmall"":1,""CanBig"":0,""Seaweed"":3}",0,0,-5,1.666666667,9.574271078,6.871842709,2,3,6.666666667,-2.702428368,1,0,"{""FishSmall"":1,""FishBig"":0,""CanSmall"":1,""CanBig"":1,""Seaweed"":0}","{""FishSmall"":1,""FishBig"":1,""CanSmall"":1,""CanBig"":0,""Seaweed"":0}",1,879.3225,1,2,2,2,2,2,2,2,2,2,2,2,2,2,100,17,0.4
3627998,10,128,Male,1,13-Oct,3,1,trial_17,,,0,,1367.07,7902.87,,"{""FishSmall"":0,""FishBig"":0,""CanSmall"":1,""CanBig"":3,""Seaweed"":2}","{""FishSmall"":1,""FishBig"":4,""CanSmall"":0,""CanBig"":0,""Seaweed"":1}",0,100,-11.66666667,15,8.975274679,7.637626158,2,1,26.66666667,-1.33764852,-1,100,"{""FishSmall"":0,""FishBig"":0,""CanSmall"":1,""CanBig"":2,""Seaweed"":0}","{""FishSmall"":0,""FishBig"":2,""CanSmall"":1,""CanBig"":0,""Seaweed"":0}",1,879.3225,1,2,2,2,2,2,2,2,2,2,2,2,2,2,100,18,0.4
3627998,10,128,Male,1,13-Oct,3,0,trial_18,,0,1,,1227.665,2301.475,1182.26,"{""FishSmall"":1,""FishBig"":3,""CanSmall"":0,""CanBig"":0,""Seaweed"":2}","{""FishSmall"":1,""FishBig"":1,""CanSmall"":1,""CanBig"":0,""Seaweed"":3}",0,100,11.66666667,3.333333333,8.975274679,9.428090416,2,3,-8.333333333,0.452815737,1,100,"{""FishSmall"":0,""FishBig"":2,""CanSmall"":1,""CanBig"":0,""Seaweed"":0}","{""FishSmall"":1,""FishBig"":1,""CanSmall"":1,""CanBig"":0,""Seaweed"":0}",1,879.3225,1,2,2,2,2,2,2,2,2,2,2,2,2,2,100,19,0.4
3627998,10,128,Male,1,13-Oct,3,1,trial_19,,,,,2360.89,,,"{""FishSmall"":0,""FishBig"":0,""CanSmall"":4,""CanBig"":2,""Seaweed"":0}","{""FishSmall"":3,""FishBig"":1,""CanSmall"":0,""CanBig"":0,""Seaweed"":2}",0,50,-13.33333333,8.333333333,4.714045208,6.871842709,0,2,21.66666667,2.157797501,2,50,"{""FishSmall"":0,""FishBig"":0,""CanSmall"":2,""CanBig"":1,""Seaweed"":0}","{""FishSmall"":3,""FishBig"":0,""CanSmall"":0,""CanBig"":0,""Seaweed"":0}",1,879.3225,1,2,2,2,2,2,2,2,2,2,2,2,2,2,100,20,0.4
3627998,10,128,Male,1,13-Oct,3,1,trial_20,,,,,2918.25,,,"{""FishSmall"":0,""FishBig"":0,""CanSmall"":3,""CanBig"":2,""Seaweed"":1}","{""FishSmall"":0,""FishBig"":0,""CanSmall"":3,""CanBig"":1,""Seaweed"":2}",0,0,-11.66666667,-8.333333333,6.871842709,6.871842709,1,2,3.333333333,0,1,0,"{""FishSmall"":1,""FishBig"":0,""CanSmall"":1,""CanBig"":1,""Seaweed"":0}","{""FishSmall"":1,""FishBig"":1,""CanSmall"":1,""CanBig"":0,""Seaweed"":0}",1,879.3225,1,2,2,2,2,2,2,2,2,2,2,2,2,2,100,21,0.4
3627998,,,,,,,,catch_2,1,,,1411.62,,,,"{""FishSmall"":0,""FishBig"":0,""CanSmall"":3,""CanBig"":3,""Seaweed"":0}","{""FishSmall"":0,""FishBig"":0,""CanSmall"":3,""CanBig"":3,""Seaweed"":0}",0,0,,,,,,,,,,,"{""FishSmall"":0,""FishBig"":0,""CanSmall"":2,""CanBig"":1,""Seaweed"":0}","{""FishSmall"":0,""FishBig"":0,""CanSmall"":2,""CanBig"":1,""Seaweed"":0}",,,,,,,,,,,,,,,,,100,22,0.4
3627998,10,128,Male,1,13-Oct,3,1,trial_21,,,1,,8956.505,4010.165,,"{""FishSmall"":3,""FishBig"":1,""CanSmall"":1,""CanBig"":0,""Seaweed"":1}","{""FishSmall"":0,""FishBig"":0,""CanSmall"":2,""CanBig"":2,""Seaweed"":2}",0,100,6.666666667,-10,9.428090416,8.164965809,1,2,-16.66666667,-1.263124607,1,100,"{""FishSmall"":1,""FishBig"":1,""CanSmall"":1,""CanBig"":0,""Seaweed"":0}","{""FishSmall"":0,""FishBig"":1,""CanSmall"":1,""CanBig"":1,""Seaweed"":0}",1,879.3225,1,2,2,2,2,2,2,2,2,2,2,2,2,2,100,23,0.4
3627998,10,128,Male,1,13-Oct,3,1,trial_22,,1,0,,1719.885,1530.69,1502.555,"{""FishSmall"":0,""FishBig"":0,""CanSmall"":2,""CanBig"":1,""Seaweed"":3}","{""FishSmall"":1,""FishBig"":2,""CanSmall"":0,""CanBig"":0,""Seaweed"":3}",100,100,-6.666666667,8.333333333,7.453559925,8.975274679,3,3,15,1.521714754,0,0,"{""FishSmall"":0,""FishBig"":0,""CanSmall"":2,""CanBig"":1,""Seaweed"":0}","{""FishSmall"":2,""FishBig"":1,""CanSmall"":0,""CanBig"":0,""Seaweed"":0}",1,879.3225,1,2,2,2,2,2,2,2,2,2,2,2,2,2,100,24,0.4
3627998,10,128,Male,1,13-Oct,3,0,trial_23,,,1,,2196.39,2475.11,,"{""FishSmall"":4,""FishBig"":0,""CanSmall"":1,""CanBig"":0,""Seaweed"":1}","{""FishSmall"":1,""FishBig"":0,""CanSmall"":4,""CanBig"":0,""Seaweed"":1}",0,100,5,-5,7.637626158,7.637626158,1,1,-10,0,0,100,"{""FishSmall"":2,""FishBig"":0,""CanSmall"":1,""CanBig"":0,""Seaweed"":0}","{""FishSmall"":1,""FishBig"":0,""CanSmall"":2,""CanBig"":0,""Seaweed"":0}",1,879.3225,1,2,2,2,2,2,2,2,2,2,2,2,2,2,100,25,0.4
3627998,10,128,Male,1,13-Oct,3,0,trial_24,,0,,,1923.515,,1399.84,"{""FishSmall"":4,""FishBig"":1,""CanSmall"":0,""CanBig"":0,""Seaweed"":1}","{""FishSmall"":3,""FishBig"":0,""CanSmall"":2,""CanBig"":0,""Seaweed"":1}",100,0,10,1.666666667,5.773502692,8.975274679,1,1,-8.333333333,3.201771987,0,-100,"{""FishSmall"":3,""FishBig"":0,""CanSmall"":0,""CanBig"":0,""Seaweed"":0}","{""FishSmall"":1,""FishBig"":0,""CanSmall"":2,""CanBig"":0,""Seaweed"":0}",1,879.3225,1,2,2,2,2,2,2,2,2,2,2,2,2,2,100,26,0.4
3627998,10,128,Male,1,13-Oct,3,1,trial_25,,1,,,4081.93,,1713.325,"{""FishSmall"":1,""FishBig"":0,""CanSmall"":2,""CanBig"":1,""Seaweed"":2}","{""FishSmall"":2,""FishBig"":2,""CanSmall"":0,""CanBig"":0,""Seaweed"":2}",50,0,-5,10,9.574271078,8.164965809,2,2,15,-1.409305268,0,-50,"{""FishSmall"":2,""FishBig"":0,""CanSmall"":1,""CanBig"":0,""Seaweed"":0}","{""FishSmall"":1,""FishBig"":2,""CanSmall"":0,""CanBig"":0,""Seaweed"":0}",1,879.3225,1,2,2,2,2,2,2,2,2,2,2,2,2,2,100,27,0.4
3627998,10,128,Male,1,13-Oct,3,1,trial_26,,,0,,3185.145,14714.065,,"{""FishSmall"":1,""FishBig"":1,""CanSmall"":1,""CanBig"":0,""Seaweed"":3}","{""FishSmall"":4,""FishBig"":0,""CanSmall"":0,""CanBig"":0,""Seaweed"":2}",0,100,3.333333333,6.666666667,9.428090416,4.714045208,3,2,3.333333333,-4.714045208,-1,100,"{""FishSmall"":1,""FishBig"":1,""CanSmall"":1,""CanBig"":0,""Seaweed"":0}","{""FishSmall"":2,""FishBig"":0,""CanSmall"":0,""CanBig"":1,""Seaweed"":0}",1,879.3225,1,2,2,2,2,2,2,2,2,2,2,2,2,2,100,28,0.4
3627998,10,128,Male,1,13-Oct,3,0,trial_27,,,,,4964.32,,,"{""FishSmall"":1,""FishBig"":2,""CanSmall"":0,""CanBig"":0,""Seaweed"":3}","{""FishSmall"":1,""FishBig"":0,""CanSmall"":3,""CanBig"":1,""Seaweed"":1}",0,0,8.333333333,-6.666666667,8.975274679,9.428090416,3,1,-15,0.452815737,-2,0,"{""FishSmall"":1,""FishBig"":1,""CanSmall"":0,""CanBig"":1,""Seaweed"":0}","{""FishSmall"":1,""FishBig"":0,""CanSmall"":2,""CanBig"":0,""Seaweed"":0}",1,879.3225,1,2,2,2,2,2,2,2,2,2,2,2,2,2,100,29,0.4
3627998,10,128,Male,1,13-Oct,3,1,trial_28,,1,0,,2958.155,1642.38,2352.94,"{""FishSmall"":1,""FishBig"":0,""CanSmall"":3,""CanBig"":1,""Seaweed"":1}","{""FishSmall"":0,""FishBig"":6,""CanSmall"":0,""CanBig"":0,""Seaweed"":0}",50,50,-6.666666667,20,9.428090416,0,1,0,26.66666667,-9.428090416,-1,0,"{""FishSmall"":1,""FishBig"":0,""CanSmall"":1,""CanBig"":1,""Seaweed"":0}","{""FishSmall"":0,""FishBig"":3,""CanSmall"":0,""CanBig"":0,""Seaweed"":0}",1,879.3225,1,2,2,2,2,2,2,2,2,2,2,2,2,2,100,30,0.4
3627998,10,128,Male,1,13-Oct,3,0,trial_29,,1,,,1048.13,,1807.485,"{""FishSmall"":3,""FishBig"":1,""CanSmall"":1,""CanBig"":0,""Seaweed"":1}","{""FishSmall"":2,""FishBig"":2,""CanSmall"":0,""CanBig"":0,""Seaweed"":2}",100,50,6.666666667,10,9.428090416,8.164965809,1,2,3.333333333,-1.263124607,1,-50,"{""FishSmall"":2,""FishBig"":0,""CanSmall"":1,""CanBig"":0,""Seaweed"":0}","{""FishSmall"":1,""FishBig"":2,""CanSmall"":0,""CanBig"":0,""Seaweed"":0}",1,879.3225,1,2,2,2,2,2,2,2,2,2,2,2,2,2,100,31,0.4
3627998,10,128,Male,1,13-Oct,3,1,trial_30,,1,,,4833.23,,1150.58,"{""FishSmall"":0,""FishBig"":0,""CanSmall"":2,""CanBig"":3,""Seaweed"":1}","{""FishSmall"":2,""FishBig"":2,""CanSmall"":0,""CanBig"":0,""Seaweed"":2}",50,50,-13.33333333,10,7.453559925,8.164965809,1,2,23.33333333,0.711405884,1,0,"{""FishSmall"":0,""FishBig"":0,""CanSmall"":1,""CanBig"":2,""Seaweed"":0}","{""FishSmall"":1,""FishBig"":2,""CanSmall"":0,""CanBig"":0,""Seaweed"":0}",1,879.3225,1,2,2,2,2,2,2,2,2,2,2,2,2,2,100,32,0.4
3637110,5,63,Female,2,4-May,0,1,trial_1,,0,,,19494.58,,18093.875,"{""FishSmall"":3,""FishBig"":2,""CanSmall"":0,""CanBig"":0,""Seaweed"":1}","{""FishSmall"":1,""FishBig"":4,""CanSmall"":0,""CanBig"":0,""Seaweed"":1}",50,0,11.66666667,15,6.871842709,7.637626158,1,1,3.333333333,0.765783449,0,-50,"{""FishSmall"":2,""FishBig"":1,""CanSmall"":0,""CanBig"":0,""Seaweed"":0}","{""FishSmall"":1,""FishBig"":2,""CanSmall"":0,""CanBig"":0,""Seaweed"":0}",1,5180.4775,1,2,2,2,2,2,2,2,2,2,2,2,2,2,100,1,1
3637110,5,63,Female,2,4-May,0,0,trial_2,,,1,,8074.03,18748.165,,"{""FishSmall"":1,""FishBig"":1,""CanSmall"":1,""CanBig"":0,""Seaweed"":3}","{""FishSmall"":3,""FishBig"":0,""CanSmall"":2,""CanBig"":0,""Seaweed"":1}",0,50,3.333333333,1.666666667,9.428090416,8.975274679,3,1,-1.666666667,-0.452815737,-2,50,"{""FishSmall"":1,""FishBig"":2,""CanSmall"":0,""CanBig"":0,""Seaweed"":0}","{""FishSmall"":2,""FishBig"":0,""CanSmall"":1,""CanBig"":0,""Seaweed"":0}",1,5180.4775,1,2,2,2,2,2,2,2,2,2,2,2,2,2,100,2,1
3637110,5,63,Female,2,4-May,0,1,trial_3,,,0,,16132.03,22793.175,,"{""FishSmall"":0,""FishBig"":1,""CanSmall"":0,""CanBig"":1,""Seaweed"":4}","{""FishSmall"":2,""FishBig"":3,""CanSmall"":0,""CanBig"":0,""Seaweed"":1}",0,100,0,13.33333333,11.54700538,7.453559925,4,1,13.33333333,-4.093445459,-3,100,"{""FishSmall"":0,""FishBig"":0,""CanSmall"":2,""CanBig"":1,""Seaweed"":0}","{""FishSmall"":1,""FishBig"":2,""CanSmall"":0,""CanBig"":0,""Seaweed"":0}",1,5180.4775,1,2,2,2,2,2,2,2,2,2,2,2,2,2,100,3,1
3637110,5,63,Female,2,4-May,0,1,trial_4,,1,,,18786.97,,18897.965,"{""FishSmall"":0,""FishBig"":0,""CanSmall"":0,""CanBig"":4,""Seaweed"":2}","{""FishSmall"":1,""FishBig"":0,""CanSmall"":4,""CanBig"":0,""Seaweed"":1}",100,50,-13.33333333,-5,9.428090416,7.637626158,2,1,8.333333333,-1.790464258,-1,-50,"{""FishSmall"":0,""FishBig"":1,""CanSmall"":0,""CanBig"":2,""Seaweed"":0}","{""FishSmall"":0,""FishBig"":0,""CanSmall"":3,""CanBig"":0,""Seaweed"":0}",1,5180.4775,1,2,2,2,2,2,2,2,2,2,2,2,2,2,100,4,1
3637110,5,63,Female,2,4-May,0,1,trial_5,,1,0,,8193.905,23000.49,9989.055,"{""FishSmall"":1,""FishBig"":1,""CanSmall"":1,""CanBig"":0,""Seaweed"":3}","{""FishSmall"":3,""FishBig"":1,""CanSmall"":1,""CanBig"":0,""Seaweed"":1}",100,100,3.333333333,6.666666667,9.428090416,9.428090416,3,1,3.333333333,0,-2,0,"{""FishSmall"":1,""FishBig"":1,""CanSmall"":0,""CanBig"":1,""Seaweed"":0}","{""FishSmall"":2,""FishBig"":0,""CanSmall"":1,""CanBig"":0,""Seaweed"":0}",1,5180.4775,1,2,2,2,2,2,2,2,2,2,2,2,2,2,100,5,1
3637110,5,63,Female,2,4-May,0,0,trial_6,,1,1,,11860.935,9458.11,8605.045,"{""FishSmall"":1,""FishBig"":0,""CanSmall"":3,""CanBig"":1,""Seaweed"":1}","{""FishSmall"":2,""FishBig"":1,""CanSmall"":1,""CanBig"":0,""Seaweed"":2}",50,100,-6.666666667,5,9.428090416,9.574271078,1,2,11.66666667,0.146180662,1,50,"{""FishSmall"":1,""FishBig"":0,""CanSmall"":1,""CanBig"":1,""Seaweed"":0}","{""FishSmall"":1,""FishBig"":1,""CanSmall"":1,""CanBig"":0,""Seaweed"":0}",1,5180.4775,1,2,2,2,2,2,2,2,2,2,2,2,2,2,100,6,1
3637110,5,63,Female,2,4-May,0,0,trial_7,,,,,10036.405,,,"{""FishSmall"":0,""FishBig"":0,""CanSmall"":2,""CanBig"":3,""Seaweed"":1}","{""FishSmall"":4,""FishBig"":1,""CanSmall"":0,""CanBig"":0,""Seaweed"":1}",50,0,-13.33333333,10,7.453559925,5.773502692,1,1,23.33333333,-1.680057233,0,-50,"{""FishSmall"":0,""FishBig"":0,""CanSmall"":2,""CanBig"":1,""Seaweed"":0}","{""FishSmall"":2,""FishBig"":1,""CanSmall"":0,""CanBig"":0,""Seaweed"":0}",1,5180.4775,1,2,2,2,2,2,2,2,2,2,2,2,2,2,100,7,1
3637110,5,63,Female,2,4-May,0,0,trial_8,,,0,,14748.095,16533.48,,"{""FishSmall"":1,""FishBig"":0,""CanSmall"":3,""CanBig"":1,""Seaweed"":1}","{""FishSmall"":3,""FishBig"":0,""CanSmall"":1,""CanBig"":0,""Seaweed"":2}",50,100,-6.666666667,3.333333333,9.428090416,7.453559925,1,2,10,-1.974530491,1,50,"{""FishSmall"":1,""FishBig"":0,""CanSmall"":2,""CanBig"":0,""Seaweed"":0}","{""FishSmall"":1,""FishBig"":1,""CanSmall"":1,""CanBig"":0,""Seaweed"":0}",1,5180.4775,1,2,2,2,2,2,2,2,2,2,2,2,2,2,100,8,1
3637110,5,63,Female,2,4-May,0,0,trial_9,,0,,,14677.625,,5696.135,"{""FishSmall"":0,""FishBig"":0,""CanSmall"":3,""CanBig"":0,""Seaweed"":3}","{""FishSmall"":1,""FishBig"":0,""CanSmall"":2,""CanBig"":0,""Seaweed"":3}",100,0,-5,-1.666666667,5,6.871842709,3,3,3.333333333,1.871842709,0,-100,"{""FishSmall"":1,""FishBig"":0,""CanSmall"":2,""CanBig"":0,""Seaweed"":0}","{""FishSmall"":1,""FishBig"":0,""CanSmall"":2,""CanBig"":0,""Seaweed"":0}",1,5180.4775,1,2,2,2,2,2,2,2,2,2,2,2,2,2,100,9,1
3637110,5,63,Female,2,4-May,0,0,trial_10,,1,1,,2688.28,12376.94,5844.775,"{""FishSmall"":1,""FishBig"":0,""CanSmall"":2,""CanBig"":0,""Seaweed"":3}","{""FishSmall"":1,""FishBig"":4,""CanSmall"":0,""CanBig"":0,""Seaweed"":1}",100,100,-1.666666667,15,6.871842709,7.637626158,3,1,16.66666667,0.765783449,-2,0,"{""FishSmall"":1,""FishBig"":1,""CanSmall"":0,""CanBig"":1,""Seaweed"":0}","{""FishSmall"":0,""FishBig"":3,""CanSmall"":0,""CanBig"":0,""Seaweed"":0}",1,5180.4775,1,2,2,2,2,2,2,2,2,2,2,2,2,2,100,10,1
3637110,,,,,,,,catch_1,0,,,18392.385,,,,"{""FishSmall"":4,""FishBig"":2,""CanSmall"":0,""CanBig"":0,""Seaweed"":0}","{""FishSmall"":4,""FishBig"":2,""CanSmall"":0,""CanBig"":0,""Seaweed"":0}",0,0,,,,,,,,,,,"{""FishSmall"":3,""FishBig"":0,""CanSmall"":0,""CanBig"":0,""Seaweed"":0}","{""FishSmall"":2,""FishBig"":1,""CanSmall"":0,""CanBig"":0,""Seaweed"":0}",,,,,,,,,,,,,,,,,100,11,1
3637110,5,63,Female,2,4-May,0,0,trial_11,,0,0,,16137.335,5275.745,3594.98,"{""FishSmall"":3,""FishBig"":1,""CanSmall"":1,""CanBig"":0,""Seaweed"":1}","{""FishSmall"":1,""FishBig"":4,""CanSmall"":0,""CanBig"":0,""Seaweed"":1}",50,100,6.666666667,15,9.428090416,7.637626158,1,1,8.333333333,-1.790464258,0,50,"{""FishSmall"":2,""FishBig"":1,""CanSmall"":0,""CanBig"":0,""Seaweed"":0}","{""FishSmall"":0,""FishBig"":3,""CanSmall"":0,""CanBig"":0,""Seaweed"":0}",1,5180.4775,1,2,2,2,2,2,2,2,2,2,2,2,2,2,100,12,1
3637110,5,63,Female,2,4-May,0,1,trial_12,,1,1,,3253.345,6281.165,3506.535,"{""FishSmall"":0,""FishBig"":0,""CanSmall"":4,""CanBig"":0,""Seaweed"":2}","{""FishSmall"":1,""FishBig"":0,""CanSmall"":3,""CanBig"":0,""Seaweed"":2}",50,50,-6.666666667,-3.333333333,4.714045208,7.453559925,2,2,3.333333333,2.739514717,0,0,"{""FishSmall"":0,""FishBig"":0,""CanSmall"":3,""CanBig"":0,""Seaweed"":0}","{""FishSmall"":1,""FishBig"":0,""CanSmall"":2,""CanBig"":0,""Seaweed"":0}",1,5180.4775,1,2,2,2,2,2,2,2,2,2,2,2,2,2,100,13,1
3637110,5,63,Female,2,4-May,0,1,trial_13,,0,1,,2082.1,1134.29,2581.835,"{""FishSmall"":1,""FishBig"":0,""CanSmall"":2,""CanBig"":1,""Seaweed"":2}","{""FishSmall"":0,""FishBig"":0,""CanSmall"":2,""CanBig"":2,""Seaweed"":2}",0,50,-5,-10,9.574271078,8.164965809,2,2,-5,-1.409305268,0,50,"{""FishSmall"":0,""FishBig"":0,""CanSmall"":2,""CanBig"":1,""Seaweed"":0}","{""FishSmall"":0,""FishBig"":0,""CanSmall"":2,""CanBig"":1,""Seaweed"":0}",1,5180.4775,1,2,2,2,2,2,2,2,2,2,2,2,2,2,100,14,1
3637110,5,63,Female,2,4-May,0,1,trial_14,,1,0,,2585.615,2376.76,3297.26,"{""FishSmall"":1,""FishBig"":0,""CanSmall"":1,""CanBig"":1,""Seaweed"":3}","{""FishSmall"":0,""FishBig"":0,""CanSmall"":4,""CanBig"":1,""Seaweed"":1}",0,50,-3.333333333,-10,9.428090416,5.773502692,3,1,-6.666666667,-3.654587724,-2,50,"{""FishSmall"":0,""FishBig"":2,""CanSmall"":1,""CanBig"":0,""Seaweed"":0}","{""FishSmall"":0,""FishBig"":0,""CanSmall"":3,""CanBig"":0,""Seaweed"":0}",1,5180.4775,1,2,2,2,2,2,2,2,2,2,2,2,2,2,100,15,1
3637110,5,63,Female,2,4-May,0,0,trial_15,,0,,,2192.285,,2904.43,"{""FishSmall"":0,""FishBig"":0,""CanSmall"":1,""CanBig"":5,""Seaweed"":0}","{""FishSmall"":1,""FishBig"":3,""CanSmall"":0,""CanBig"":0,""Seaweed"":2}",100,50,-18.33333333,11.66666667,3.726779962,8.975274679,0,2,30,5.248494716,2,-50,"{""FishSmall"":0,""FishBig"":0,""CanSmall"":0,""CanBig"":3,""Seaweed"":0}","{""FishSmall"":1,""FishBig"":1,""CanSmall"":0,""CanBig"":1,""Seaweed"":0}",1,5180.4775,1,2,2,2,2,2,2,2,2,2,2,2,2,2,100,16,1
3637110,5,63,Female,2,4-May,0,0,trial_16,,0,,,1648.985,,2500.94,"{""FishSmall"":5,""FishBig"":0,""CanSmall"":1,""CanBig"":0,""Seaweed"":0}","{""FishSmall"":0,""FishBig"":0,""CanSmall"":2,""CanBig"":1,""Seaweed"":3}",100,0,6.666666667,-6.666666667,7.453559925,7.453559925,0,3,-13.33333333,-8.88E-16,3,-100,"{""FishSmall"":2,""FishBig"":0,""CanSmall"":1,""CanBig"":0,""Seaweed"":0}","{""FishSmall"":0,""FishBig"":0,""CanSmall"":3,""CanBig"":0,""Seaweed"":0}",1,5180.4775,1,2,2,2,2,2,2,2,2,2,2,2,2,2,100,17,1
3637110,5,63,Female,2,4-May,0,0,trial_17,,0,,,2116.47,,1783.48,"{""FishSmall"":2,""FishBig"":0,""CanSmall"":4,""CanBig"":0,""Seaweed"":0}","{""FishSmall"":1,""FishBig"":2,""CanSmall"":0,""CanBig"":0,""Seaweed"":3}",50,0,-3.333333333,8.333333333,9.428090416,8.975274679,0,3,11.66666667,-0.452815737,3,-50,"{""FishSmall"":0,""FishBig"":0,""CanSmall"":3,""CanBig"":0,""Seaweed"":0}","{""FishSmall"":1,""FishBig"":1,""CanSmall"":1,""CanBig"":0,""Seaweed"":0}",1,5180.4775,1,2,2,2,2,2,2,2,2,2,2,2,2,2,100,18,1
3637110,5,63,Female,2,4-May,0,0,trial_18,,0,0,,2879.54,4260.75,2060.395,"{""FishSmall"":0,""FishBig"":0,""CanSmall"":1,""CanBig"":3,""Seaweed"":2}","{""FishSmall"":1,""FishBig"":0,""CanSmall"":3,""CanBig"":1,""Seaweed"":1}",50,50,-11.66666667,-6.666666667,8.975274679,9.428090416,2,1,5,0.452815737,-1,0,"{""FishSmall"":0,""FishBig"":0,""CanSmall"":1,""CanBig"":2,""Seaweed"":0}","{""FishSmall"":0,""FishBig"":0,""CanSmall"":3,""CanBig"":0,""Seaweed"":0}",1,5180.4775,1,2,2,2,2,2,2,2,2,2,2,2,2,2,100,19,1
3637110,5,63,Female,2,4-May,0,0,trial_19,,,0,,3787.41,5243.45,,"{""FishSmall"":3,""FishBig"":1,""CanSmall"":0,""CanBig"":0,""Seaweed"":2}","{""FishSmall"":0,""FishBig"":0,""CanSmall"":1,""CanBig"":2,""Seaweed"":3}",0,100,8.333333333,-8.333333333,6.871842709,8.975274679,2,3,-16.66666667,2.103431969,1,100,"{""FishSmall"":2,""FishBig"":1,""CanSmall"":0,""CanBig"":0,""Seaweed"":0}","{""FishSmall"":1,""FishBig"":0,""CanSmall"":0,""CanBig"":2,""Seaweed"":0}",1,5180.4775,1,2,2,2,2,2,2,2,2,2,2,2,2,2,100,20,1
3637110,5,63,Female,2,4-May,0,0,trial_20,,,0,,6410.39,2873.28,,"{""FishSmall"":0,""FishBig"":0,""CanSmall"":1,""CanBig"":3,""Seaweed"":2}","{""FishSmall"":3,""FishBig"":0,""CanSmall"":1,""CanBig"":0,""Seaweed"":2}",0,100,-11.66666667,3.333333333,8.975274679,7.453559925,2,2,15,-1.521714754,0,100,"{""FishSmall"":1,""FishBig"":1,""CanSmall"":0,""CanBig"":1,""Seaweed"":0}","{""FishSmall"":1,""FishBig"":0,""CanSmall"":2,""CanBig"":0,""Seaweed"":0}",1,5180.4775,1,2,2,2,2,2,2,2,2,2,2,2,2,2,100,21,1
3637110,,,,,,,,catch_2,1,,,3745.735,,,,"{""FishSmall"":0,""FishBig"":0,""CanSmall"":3,""CanBig"":3,""Seaweed"":0}","{""FishSmall"":0,""FishBig"":0,""CanSmall"":3,""CanBig"":3,""Seaweed"":0}",0,0,,,,,,,,,,,"{""FishSmall"":0,""FishBig"":0,""CanSmall"":2,""CanBig"":1,""Seaweed"":0}","{""FishSmall"":0,""FishBig"":0,""CanSmall"":2,""CanBig"":1,""Seaweed"":0}",,,,,,,,,,,,,,,,,100,22,1
3637110,5,63,Female,2,4-May,0,0,trial_21,,0,,,5318.05,,3295.135,"{""FishSmall"":1,""FishBig"":3,""CanSmall"":0,""CanBig"":0,""Seaweed"":2}","{""FishSmall"":0,""FishBig"":0,""CanSmall"":2,""CanBig"":2,""Seaweed"":2}",0,0,11.66666667,-10,8.975274679,8.164965809,2,2,-21.66666667,-0.810308869,0,0,"{""FishSmall"":0,""FishBig"":2,""CanSmall"":1,""CanBig"":0,""Seaweed"":0}","{""FishSmall"":0,""FishBig"":0,""CanSmall"":1,""CanBig"":2,""Seaweed"":0}",1,5180.4775,1,2,2,2,2,2,2,2,2,2,2,2,2,2,100,23,1
3637110,5,63,Female,2,4-May,0,1,trial_22,,,,,8199,,,"{""FishSmall"":1,""FishBig"":0,""CanSmall"":3,""CanBig"":1,""Seaweed"":1}","{""FishSmall"":0,""FishBig"":0,""CanSmall"":3,""CanBig"":2,""Seaweed"":1}",0,0,-6.666666667,-11.66666667,9.428090416,6.871842709,1,1,-5,-2.556247706,0,0,"{""FishSmall"":1,""FishBig"":0,""CanSmall"":1,""CanBig"":1,""Seaweed"":0}","{""FishSmall"":0,""FishBig"":0,""CanSmall"":1,""CanBig"":2,""Seaweed"":0}",1,5180.4775,1,2,2,2,2,2,2,2,2,2,2,2,2,2,100,24,1
3637110,5,63,Female,2,4-May,0,0,trial_23,,0,1,,10378.93,2366.175,2985.51,"{""FishSmall"":1,""FishBig"":0,""CanSmall"":1,""CanBig"":1,""Seaweed"":3}","{""FishSmall"":0,""FishBig"":0,""CanSmall"":3,""CanBig"":2,""Seaweed"":1}",100,100,-3.333333333,-11.66666667,9.428090416,6.871842709,3,1,-8.333333333,-2.556247706,-2,0,"{""FishSmall"":1,""FishBig"":0,""CanSmall"":1,""CanBig"":1,""Seaweed"":0}","{""FishSmall"":0,""FishBig"":0,""CanSmall"":2,""CanBig"":1,""Seaweed"":0}",1,5180.4775,1,2,2,2,2,2,2,2,2,2,2,2,2,2,100,25,1
3637110,5,63,Female,2,4-May,0,1,trial_24,,1,0,,10944.49,3316.31,39214.81,"{""FishSmall"":0,""FishBig"":0,""CanSmall"":1,""CanBig"":3,""Seaweed"":2}","{""FishSmall"":2,""FishBig"":0,""CanSmall"":3,""CanBig"":0,""Seaweed"":1}",100,50,-11.66666667,-1.666666667,8.975274679,8.975274679,2,1,10,0,-1,-50,"{""FishSmall"":0,""FishBig"":1,""CanSmall"":0,""CanBig"":2,""Seaweed"":0}","{""FishSmall"":1,""FishBig"":1,""CanSmall"":1,""CanBig"":0,""Seaweed"":0}",1,5180.4775,1,2,2,2,2,2,2,2,2,2,2,2,2,2,100,26,1
3637110,5,63,Female,2,4-May,0,1,trial_25,,1,1,,5449.98,20360.5,5362.125,"{""FishSmall"":3,""FishBig"":2,""CanSmall"":0,""CanBig"":0,""Seaweed"":1}","{""FishSmall"":1,""FishBig"":1,""CanSmall"":1,""CanBig"":0,""Seaweed"":3}",50,100,11.66666667,3.333333333,6.871842709,9.428090416,1,3,-8.333333333,2.556247706,2,50,"{""FishSmall"":2,""FishBig"":0,""CanSmall"":0,""CanBig"":1,""Seaweed"":0}","{""FishSmall"":0,""FishBig"":0,""CanSmall"":1,""CanBig"":2,""Seaweed"":0}",1,5180.4775,1,2,2,2,2,2,2,2,2,2,2,2,2,2,100,27,1
3637110,5,63,Female,2,4-May,0,0,trial_26,,1,,,17196.59,,14297.77,"{""FishSmall"":0,""FishBig"":0,""CanSmall"":2,""CanBig"":2,""Seaweed"":2}","{""FishSmall"":0,""FishBig"":0,""CanSmall"":4,""CanBig"":1,""Seaweed"":1}",100,0,-10,-10,8.164965809,5.773502692,2,1,0,-2.391463117,-1,-100,"{""FishSmall"":0,""FishBig"":0,""CanSmall"":1,""CanBig"":2,""Seaweed"":0}","{""FishSmall"":0,""FishBig"":0,""CanSmall"":2,""CanBig"":1,""Seaweed"":0}",1,5180.4775,1,2,2,2,2,2,2,2,2,2,2,2,2,2,100,28,1
3637110,5,63,Female,2,4-May,0,0,trial_27,,,0,,9813.545,15606.875,,"{""FishSmall"":2,""FishBig"":0,""CanSmall"":2,""CanBig"":0,""Seaweed"":2}","{""FishSmall"":0,""FishBig"":0,""CanSmall"":2,""CanBig"":2,""Seaweed"":2}",0,100,0,-10,8.164965809,8.164965809,2,2,-10,0,0,100,"{""FishSmall"":1,""FishBig"":0,""CanSmall"":2,""CanBig"":0,""Seaweed"":0}","{""FishSmall"":1,""FishBig"":0,""CanSmall"":2,""CanBig"":0,""Seaweed"":0}",1,5180.4775,1,2,2,2,2,2,2,2,2,2,2,2,2,2,100,29,1
3637110,5,63,Female,2,4-May,0,0,trial_28,,0,,,3380.78,,20309.735,"{""FishSmall"":1,""FishBig"":0,""CanSmall"":4,""CanBig"":0,""Seaweed"":1}","{""FishSmall"":1,""FishBig"":0,""CanSmall"":1,""CanBig"":1,""Seaweed"":3}",50,50,-5,-3.333333333,7.637626158,9.428090416,1,3,1.666666667,1.790464258,2,0,"{""FishSmall"":0,""FishBig"":0,""CanSmall"":3,""CanBig"":0,""Seaweed"":0}","{""FishSmall"":1,""FishBig"":0,""CanSmall"":2,""CanBig"":0,""Seaweed"":0}",1,5180.4775,1,2,2,2,2,2,2,2,2,2,2,2,2,2,100,30,1
3637110,5,63,Female,2,4-May,0,1,trial_29,,0,,,22382.395,,3178.98,"{""FishSmall"":1,""FishBig"":1,""CanSmall"":1,""CanBig"":0,""Seaweed"":3}","{""FishSmall"":0,""FishBig"":0,""CanSmall"":2,""CanBig"":2,""Seaweed"":2}",50,0,3.333333333,-10,9.428090416,8.164965809,3,2,-13.33333333,-1.263124607,-1,-50,"{""FishSmall"":1,""FishBig"":1,""CanSmall"":0,""CanBig"":1,""Seaweed"":0}","{""FishSmall"":0,""FishBig"":0,""CanSmall"":2,""CanBig"":1,""Seaweed"":0}",1,5180.4775,1,2,2,2,2,2,2,2,2,2,2,2,2,2,100,31,1
3637110,5,63,Female,2,4-May,0,0,trial_30,,1,0,,9229.13,10109.785,11154.19,"{""FishSmall"":0,""FishBig"":0,""CanSmall"":2,""CanBig"":3,""Seaweed"":1}","{""FishSmall"":1,""FishBig"":2,""CanSmall"":0,""CanBig"":0,""Seaweed"":3}",50,100,-13.33333333,8.333333333,7.453559925,8.975274679,1,3,21.66666667,1.521714754,2,50,"{""FishSmall"":0,""FishBig"":0,""CanSmall"":1,""CanBig"":2,""Seaweed"":0}","{""FishSmall"":1,""FishBig"":2,""CanSmall"":0,""CanBig"":0,""Seaweed"":0}",1,5180.4775,1,2,2,2,2,2,2,2,2,2,2,2,2,2,100,32,1
3637117,5,66,Male,1,4-May,0,1,trial_1,,,,,7662.62,,,"{""FishSmall"":3,""FishBig"":2,""CanSmall"":0,""CanBig"":0,""Seaweed"":1}","{""FishSmall"":2,""FishBig"":1,""CanSmall"":1,""CanBig"":0,""Seaweed"":2}",0,0,11.66666667,5,6.871842709,9.574271078,1,2,-6.666666667,2.702428368,1,0,"{""FishSmall"":1,""FishBig"":1,""CanSmall"":1,""CanBig"":0,""Seaweed"":0}","{""FishSmall"":0,""FishBig"":1,""CanSmall"":1,""CanBig"":1,""Seaweed"":0}",1,2648.1245,1,2,2,2,2,2,2,2,2,2,2,2,2,2,100,1,0.8
3637117,5,66,Male,1,4-May,0,0,trial_2,,1,1,,7065.54,7165.885,3715.13,"{""FishSmall"":1,""FishBig"":0,""CanSmall"":4,""CanBig"":1,""Seaweed"":0}","{""FishSmall"":1,""FishBig"":0,""CanSmall"":3,""CanBig"":1,""Seaweed"":1}",100,50,-8.333333333,-6.666666667,8.975274679,9.428090416,0,1,1.666666667,0.452815737,1,-50,"{""FishSmall"":1,""FishBig"":0,""CanSmall"":1,""CanBig"":1,""Seaweed"":0}","{""FishSmall"":0,""FishBig"":0,""CanSmall"":3,""CanBig"":0,""Seaweed"":0}",1,2648.1245,1,2,2,2,2,2,2,2,2,2,2,2,2,2,100,2,0.8
3637117,5,66,Male,1,4-May,0,0,trial_3,,0,0,,3893.215,3555.18,3750.675,"{""FishSmall"":1,""FishBig"":2,""CanSmall"":0,""CanBig"":0,""Seaweed"":3}","{""FishSmall"":1,""FishBig"":0,""CanSmall"":3,""CanBig"":1,""Seaweed"":1}",100,50,8.333333333,-6.666666667,8.975274679,9.428090416,3,1,-15,0.452815737,-2,-50,"{""FishSmall"":1,""FishBig"":2,""CanSmall"":0,""CanBig"":0,""Seaweed"":0}","{""FishSmall"":1,""FishBig"":0,""CanSmall"":2,""CanBig"":0,""Seaweed"":0}",1,2648.1245,1,2,2,2,2,2,2,2,2,2,2,2,2,2,100,3,0.8
3637117,5,66,Male,1,4-May,0,1,trial_4,,0,,,4038.675,,3397.04,"{""FishSmall"":1,""FishBig"":0,""CanSmall"":1,""CanBig"":1,""Seaweed"":3}","{""FishSmall"":0,""FishBig"":0,""CanSmall"":2,""CanBig"":1,""Seaweed"":3}",0,0,-3.333333333,-6.666666667,9.428090416,7.453559925,3,3,-3.333333333,-1.974530491,0,0,"{""FishSmall"":0,""FishBig"":0,""CanSmall"":2,""CanBig"":1,""Seaweed"":0}","{""FishSmall"":2,""FishBig"":0,""CanSmall"":1,""CanBig"":0,""Seaweed"":0}",1,2648.1245,1,2,2,2,2,2,2,2,2,2,2,2,2,2,100,4,0.8
3637117,5,66,Male,1,4-May,0,0,trial_5,,0,,,4098.34,,6827.65,"{""FishSmall"":1,""FishBig"":0,""CanSmall"":3,""CanBig"":1,""Seaweed"":1}","{""FishSmall"":2,""FishBig"":0,""CanSmall"":2,""CanBig"":0,""Seaweed"":2}",100,0,-6.666666667,0,9.428090416,8.164965809,1,2,6.666666667,-1.263124607,1,-100,"{""FishSmall"":0,""FishBig"":1,""CanSmall"":2,""CanBig"":0,""Seaweed"":0}","{""FishSmall"":2,""FishBig"":0,""CanSmall"":0,""CanBig"":1,""Seaweed"":0}",1,2648.1245,1,2,2,2,2,2,2,2,2,2,2,2,2,2,100,5,0.8
3637117,5,66,Male,1,4-May,0,1,trial_6,,,1,,3085.345,5062.065,,"{""FishSmall"":3,""FishBig"":1,""CanSmall"":1,""CanBig"":0,""Seaweed"":1}","{""FishSmall"":4,""FishBig"":0,""CanSmall"":1,""CanBig"":0,""Seaweed"":1}",0,100,6.666666667,5,9.428090416,7.637626158,1,1,-1.666666667,-1.790464258,0,100,"{""FishSmall"":0,""FishBig"":2,""CanSmall"":1,""CanBig"":0,""Seaweed"":0}","{""FishSmall"":3,""FishBig"":0,""CanSmall"":0,""CanBig"":0,""Seaweed"":0}",1,2648.1245,1,2,2,2,2,2,2,2,2,2,2,2,2,2,100,6,0.8
3637117,5,66,Male,1,4-May,0,1,trial_7,,1,,,3194.235,,2820.6,"{""FishSmall"":1,""FishBig"":1,""CanSmall"":1,""CanBig"":0,""Seaweed"":3}","{""FishSmall"":1,""FishBig"":1,""CanSmall"":1,""CanBig"":0,""Seaweed"":3}",100,0,3.333333333,3.333333333,9.428090416,9.428090416,3,3,0,0,0,-100,"{""FishSmall"":0,""FishBig"":1,""CanSmall"":2,""CanBig"":0,""Seaweed"":0}","{""FishSmall"":0,""FishBig"":2,""CanSmall"":0,""CanBig"":1,""Seaweed"":0}",1,2648.1245,1,2,2,2,2,2,2,2,2,2,2,2,2,2,100,7,0.8
3637117,5,66,Male,1,4-May,0,1,trial_8,,,1,,3859.09,7194.505,,"{""FishSmall"":3,""FishBig"":1,""CanSmall"":0,""CanBig"":0,""Seaweed"":2}","{""FishSmall"":5,""FishBig"":0,""CanSmall"":1,""CanBig"":0,""Seaweed"":0}",0,50,8.333333333,6.666666667,6.871842709,7.453559925,2,0,-1.666666667,0.581717216,-2,50,"{""FishSmall"":2,""FishBig"":1,""CanSmall"":0,""CanBig"":0,""Seaweed"":0}","{""FishSmall"":2,""FishBig"":0,""CanSmall"":1,""CanBig"":0,""Seaweed"":0}",1,2648.1245,1,2,2,2,2,2,2,2,2,2,2,2,2,2,100,8,0.8
3637117,5,66,Male,1,4-May,0,1,trial_9,,,,,3158.77,,,"{""FishSmall"":1,""FishBig"":0,""CanSmall"":3,""CanBig"":0,""Seaweed"":2}","{""FishSmall"":0,""FishBig"":0,""CanSmall"":3,""CanBig"":1,""Seaweed"":2}",50,0,-3.333333333,-8.333333333,7.453559925,6.871842709,2,2,-5,-0.581717216,0,-50,"{""FishSmall"":1,""FishBig"":0,""CanSmall"":1,""CanBig"":1,""Seaweed"":0}","{""FishSmall"":0,""FishBig"":1,""CanSmall"":1,""CanBig"":1,""Seaweed"":0}",1,2648.1245,1,2,2,2,2,2,2,2,2,2,2,2,2,2,100,9,0.8
